Latitude,Longitude,Speed,AccelX,AccelY,AccelZ,GyroX,GyroY,GyroZ
40.232429,29.009088,9.69,0.77,-0.59,9.46,0.1,-0.07,0.37
40.232429,29.009088,9.69,0.51,-0.2,8.14,-0.08,-0.04,0.37
40.232429,29.009088,9.69,1.0,-0.34,10.54,-0.08,0.02,0.37
40.232395,29.009082,14.13,0.48,-0.58,10.24,-0.0,0.01,0.33
40.232395,29.009082,14.13,0.09,-1.22,10.05,-0.04,0.0,0.23
40.232395,29.009082,14.13,-0.0,-0.66,10.5,-0.05,0.03,0.22
40.232395,29.009082,14.13,0.02,-0.88,9.92,-0.01,0.01,0.27
40.232395,29.009082,14.13,-0.12,-1.15,9.95,0.01,0.03,0.24
40.232395,29.009082,14.13,-0.31,-1.18,10.32,-0.02,0.03,0.21
40.232395,29.009082,14.13,-0.54,-1.02,10.38,-0.04,0.02,0.19
40.232395,29.009082,14.13,-0.58,-1.44,9.43,0.02,0.04,0.17
40.23236,29.009084,15.17,-0.8,-1.3,10.15,0.03,0.02,0.12
40.23236,29.009084,15.17,-0.52,-1.65,10.21,0.01,0.01,0.02
40.23236,29.009084,15.17,-1.22,-1.49,10.11,0.01,0.02,-0.0
40.232322,29.009094,18.08,-1.13,-1.78,9.56,0.02,0.02,-0.04
40.232322,29.009094,18.08,-1.45,-1.91,8.63,0.01,0.04,-0.06
40.232322,29.009094,18.08,-1.53,-1.58,10.27,-0.0,0.01,-0.06
40.232269,29.009098,22.98,-1.07,-1.83,8.74,-0.01,-0.03,-0.05
40.232269,29.009098,22.98,-0.65,-1.55,10.11,0.04,-0.04,-0.05
40.232269,29.009098,22.98,-0.64,-1.24,9.9,0.03,-0.04,-0.03
40.232269,29.009098,22.98,-0.23,-2.36,8.95,-0.02,-0.02,-0.01
40.232269,29.009098,22.98,-0.35,-1.86,8.97,0.06,-0.03,0.0
40.232269,29.009098,22.98,-0.63,-1.08,10.32,0.02,0.0,-0.01
40.232269,29.009098,22.98,-0.58,-1.75,9.3,0.03,-0.0,0.01
40.232269,29.009098,22.98,-0.52,-1.35,10.5,0.05,-0.01,0.02
40.232269,29.009098,22.98,-0.88,-0.91,11.26,0.01,-0.0,0.01
40.232208,29.009099,26.91,-0.44,-2.34,8.25,-0.01,0.0,0.01
40.232208,29.009099,26.91,-0.81,-0.62,10.41,0.02,-0.01,-0.0
40.232208,29.009099,26.91,-0.83,-1.52,8.61,0.01,0.03,-0.03
40.232208,29.009099,26.91,-0.79,-1.21,10.63,0.02,-0.01,-0.01
40.232208,29.009099,26.91,-0.53,-1.42,11.37,-0.07,-0.01,-0.03
40.232128,29.009101,31.08,-0.5,-1.23,11.2,-0.0,0.03,0.0
40.232128,29.009101,31.08,-1.03,-1.16,10.54,-0.02,-0.01,-0.0
40.232128,29.009101,31.08,-0.31,-1.86,8.94,0.06,-0.06,-0.0
40.232128,29.009101,31.08,-1.43,-1.36,11.07,-0.03,0.0,-0.01
40.232128,29.009101,31.08,-0.64,-1.72,10.28,0.01,0.01,-0.01
40.232128,29.009101,31.08,-1.35,-1.03,11.13,-0.04,0.03,-0.04
40.232128,29.009101,31.08,-0.28,-1.67,11.21,0.02,0.04,-0.02
40.232128,29.009101,31.08,-1.07,-0.98,11.32,0.01,0.04,-0.03
40.23204,29.009107,35.61,-1.24,-1.08,10.25,0.02,0.02,-0.03
40.23204,29.009107,35.61,-0.88,-1.65,8.63,0.07,0.0,0.03
40.23204,29.009107,35.61,-1.04,-1.87,10.14,0.05,0.0,-0.03
40.23204,29.009107,35.61,-1.22,-1.12,11.44,0.06,0.06,0.08
40.23204,29.009107,35.61,-0.5,-1.75,8.62,0.02,-0.02,-0.0
40.23204,29.009107,35.61,-0.31,-1.53,9.74,0.03,-0.04,0.01
40.231945,29.009109,39.47,-0.99,-1.52,11.43,0.0,-0.05,-0.03
40.231945,29.009109,39.47,-1.05,-1.37,10.9,0.0,0.01,-0.02
40.231945,29.009109,39.47,-0.67,-1.22,10.01,0.02,0.05,-0.02
40.231945,29.009109,39.47,-0.34,-1.28,10.94,0.02,-0.04,0.02
40.231945,29.009109,39.47,-1.03,-1.89,9.07,0.0,0.04,-0.03
40.231945,29.009109,39.47,-0.62,-1.77,9.8,0.02,-0.04,-0.01
40.231945,29.009109,39.47,-0.92,-1.09,10.07,0.05,0.01,-0.04
40.231945,29.009109,39.47,-0.46,-1.93,9.83,0.02,-0.04,-0.02
40.231945,29.009109,39.47,-1.69,-0.37,13.29,-0.01,0.04,-0.02
40.231842,29.009109,43.37,-1.3,-1.39,9.45,0.03,-0.02,-0.02
40.231842,29.009109,43.37,-0.6,-1.23,8.67,-0.02,-0.01,0.0
40.231842,29.009109,43.37,-1.01,-1.74,8.59,0.03,0.02,-0.02
40.231842,29.009109,43.37,-1.07,-1.52,10.7,-0.02,0.0,-0.02
40.231842,29.009109,43.37,-1.0,-1.68,10.49,-0.03,-0.01,-0.03
40.231842,29.009109,43.37,-0.79,-2.04,9.39,0.01,0.02,-0.02
40.231842,29.009109,43.37,-0.43,-1.44,9.7,-0.0,0.01,-0.02
40.231727,29.009111,46.82,-0.64,-0.72,9.71,0.05,-0.01,-0.0
40.231727,29.009111,46.82,-1.25,-0.18,10.31,0.04,-0.0,-0.02
40.231727,29.009111,46.82,-1.16,-0.52,9.91,-0.04,0.01,-0.02
40.231727,29.009111,46.82,-1.03,0.75,11.28,0.0,-0.03,0.01
40.231727,29.009111,46.82,-0.11,-0.41,9.97,-0.39,0.0,0.03
40.231727,29.009111,46.82,-1.35,3.85,10.88,-0.06,-0.06,-0.1
40.231727,29.009111,46.82,-0.73,1.78,11.41,0.09,-0.09,-0.19
40.231727,29.009111,46.82,-0.98,0.98,10.77,-0.0,-0.01,0.05
40.231727,29.009111,46.82,-0.7,1.53,11.15,0.07,-0.03,-0.0
40.231727,29.009111,46.82,-1.02,1.05,9.61,-0.02,-0.02,0.0
40.231727,29.009111,46.82,-1.3,0.96,9.42,0.06,0.05,0.01
40.231727,29.009111,46.82,-0.62,0.67,9.95,0.0,-0.01,-0.01
40.231727,29.009111,46.82,-1.09,0.82,8.38,-0.03,0.0,0.01
40.231727,29.009111,46.82,-0.44,1.73,10.53,0.04,0.0,-0.0
40.231727,29.009111,46.82,-0.83,1.28,9.87,0.02,0.0,-0.0
40.231727,29.009111,46.82,-0.38,1.58,9.96,0.04,-0.0,0.01
40.231727,29.009111,46.82,-1.26,2.07,11.61,-0.0,-0.01,0.01
40.231727,29.009111,46.82,-0.66,1.98,11.33,0.03,0.04,-0.01
40.231727,29.009111,46.82,-1.57,1.15,10.08,0.02,0.01,0.01
40.231727,29.009111,46.82,-1.15,1.51,10.32,0.04,-0.04,0.02
40.231727,29.009111,46.82,-0.33,1.81,10.4,-0.0,0.02,-0.01
40.231727,29.009111,46.82,-1.42,0.88,9.88,0.04,0.03,0.01
40.231727,29.009111,46.82,-1.36,1.02,10.3,0.04,-0.01,-0.01
40.23151,29.009111,38.17,-0.34,1.7,9.66,0.02,-0.0,0.0
40.23151,29.009111,38.17,-0.8,0.88,10.22,0.01,-0.01,0.01
40.23151,29.009111,38.17,-1.31,1.4,8.95,0.02,-0.02,0.01
40.23151,29.009111,38.17,-0.4,1.9,10.84,0.04,-0.02,-0.01
40.23151,29.009111,38.17,-0.79,1.24,9.2,0.05,-0.01,0.01
40.23151,29.009111,38.17,0.27,1.69,10.34,0.04,-0.03,0.02
40.23151,29.009111,38.17,-1.24,1.1,10.45,-0.01,-0.0,-0.01
40.23151,29.009111,38.17,-0.82,2.06,10.2,0.01,-0.02,0.02
40.23151,29.009111,38.17,-0.44,1.04,10.22,0.01,-0.06,0.01
40.23151,29.009111,38.17,-1.37,1.85,11.02,0.02,-0.04,0.0
40.23151,29.009111,38.17,-0.77,1.43,10.64,0.02,-0.01,0.0
40.23143,29.009113,29.39,-1.28,1.94,11.8,-0.03,0.02,-0.01
40.23143,29.009113,29.39,-0.32,1.27,9.69,0.03,0.0,0.01
40.23143,29.009113,29.39,-1.01,1.31,10.41,0.01,-0.01,0.01
40.23143,29.009113,29.39,-0.52,1.61,11.13,-0.01,0.03,-0.01
40.23143,29.009113,29.39,-1.21,1.36,10.16,-0.01,-0.01,-0.0
40.23143,29.009113,29.39,-1.01,1.98,10.89,0.03,-0.0,-0.0
40.23143,29.009113,29.39,-1.25,1.53,10.41,0.04,-0.01,0.0
40.231372,29.009115,29.39,-1.21,1.61,10.58,0.01,-0.01,-0.0
40.23133,29.009119,13.2,-0.79,1.69,10.53,0.02,-0.01,0.0
40.23133,29.009119,13.2,-0.95,0.96,10.26,0.01,-0.01,-0.01
40.23133,29.009119,13.2,-0.99,0.76,10.41,0.01,-0.01,-0.01
40.231311,29.009122,5.33,-0.76,-0.05,10.02,0.15,0.02,0.01
40.231311,29.009122,5.33,-0.42,-0.24,9.56,0.14,0.1,0.05
40.231311,29.009122,5.33,-0.82,-0.21,10.13,0.02,0.0,-0.01
40.231304,29.009122,1.41,-0.75,-0.66,10.15,0.02,-0.0,-0.03
40.231304,29.009122,1.41,-0.82,-1.42,10.36,0.01,-0.01,-0.07
40.231304,29.00912,0.93,-0.65,-1.46,10.45,0.0,-0.01,0.01
40.231304,29.00912,0.93,-0.55,-1.71,10.5,0.01,-0.01,0.01
40.231227,29.009124,15.61,-0.57,-1.65,10.28,0.01,0.02,-0.01
40.231178,29.009126,20.48,-0.25,-1.92,9.21,0.02,-0.03,-0.01
40.231178,29.009126,20.48,-1.18,-1.06,11.31,-0.06,0.01,-0.02
40.231178,29.009126,20.48,-0.67,-1.82,8.13,0.09,-0.04,0.01
40.231178,29.009126,20.48,-0.69,-1.96,6.63,0.05,-0.01,-0.01
40.231121,29.009128,25.22,-0.41,-2.14,8.02,0.06,0.0,-0.02
40.231121,29.009128,25.22,-0.62,-1.16,10.06,0.06,-0.01,-0.01
40.231121,29.009128,25.22,-0.64,-2.21,10.04,-0.01,-0.02,-0.02
40.231121,29.009128,25.22,-0.53,-1.45,9.39,-0.0,0.01,-0.01
40.231121,29.009128,25.22,-1.29,-1.42,10.23,0.04,-0.0,-0.01
40.231121,29.009128,25.22,-0.8,-1.61,11.61,-0.02,0.01,-0.02
40.231121,29.009128,25.22,-0.62,-1.89,9.06,0.03,0.0,-0.01
40.231121,29.009128,25.22,-0.82,-1.59,9.19,0.03,-0.03,-0.02
40.231121,29.009128,25.22,-1.3,-1.24,10.2,-0.06,0.0,-0.03
40.231121,29.009128,25.22,-0.62,-1.12,9.96,-0.06,-0.04,-0.0
40.231048,29.009128,29.72,-0.59,-1.34,9.92,-0.06,-0.03,-0.01
40.231048,29.009128,29.72,-0.56,-1.68,9.95,-0.06,-0.01,-0.0
40.231048,29.009128,29.72,-0.59,-1.53,10.03,0.01,-0.01,-0.01
40.231048,29.009128,29.72,-0.66,-2.0,8.89,0.02,0.01,-0.02
40.231048,29.009128,29.72,-0.54,-2.42,8.3,0.01,-0.02,-0.0
40.231048,29.009128,29.72,-0.75,-1.56,8.76,0.03,-0.01,-0.03
40.231048,29.009128,29.72,-0.71,-0.96,11.49,0.01,0.01,-0.01
40.231048,29.009128,29.72,-0.68,-1.64,7.65,0.06,0.03,-0.02
40.231048,29.009128,29.72,-0.59,-1.69,9.83,-0.03,-0.0,-0.01
40.230968,29.009128,34.17,-1.03,-1.09,11.46,-0.06,0.04,-0.03
40.230968,29.009128,34.17,-0.67,-1.92,9.56,0.01,-0.01,-0.01
40.230968,29.009128,34.17,0.05,-1.82,11.13,0.07,-0.07,-0.0
40.230968,29.009128,34.17,-0.91,-0.98,11.61,0.02,0.02,-0.02
40.230968,29.009128,34.17,-0.39,-1.63,9.65,-0.01,0.0,-0.01
40.230968,29.009128,34.17,-0.8,-1.4,9.45,0.05,0.01,-0.01
40.230968,29.009128,34.17,-0.68,-1.19,10.97,0.0,0.0,-0.02
40.230876,29.009128,38.02,-0.45,-1.2,10.24,0.01,0.01,-0.0
40.230876,29.009128,38.02,-0.9,-1.68,9.53,-0.03,0.02,-0.01
40.230876,29.009128,38.02,-0.35,-1.3,10.81,0.02,0.01,-0.01
40.230876,29.009128,38.02,-0.62,-1.33,10.97,0.01,0.0,-0.01
40.230876,29.009128,38.02,-0.69,-1.32,8.88,0.0,-0.02,-0.0
40.230876,29.009128,38.02,-0.14,-1.83,9.72,0.06,-0.01,0.0
40.230773,29.009126,42.04,-0.26,-1.67,10.06,0.02,-0.01,0.01
40.230773,29.009126,42.04,-0.08,-1.64,8.9,0.0,-0.02,0.02
40.230773,29.009126,42.04,-0.87,-0.66,12.41,0.01,-0.01,0.02
40.230773,29.009126,42.04,-0.47,-1.83,8.72,0.02,-0.03,-0.0
40.230773,29.009126,42.04,-0.08,-1.26,8.4,0.02,-0.05,0.02
40.230773,29.009126,42.04,-0.91,-1.1,11.31,0.01,0.03,0.02
40.230773,29.009126,42.04,-0.5,-1.3,7.89,0.06,-0.02,0.02
40.230773,29.009126,42.04,0.11,-1.37,10.2,-0.01,-0.05,0.01
40.230663,29.009128,45.73,-0.26,-0.89,10.12,0.01,-0.03,0.01
40.230663,29.009128,45.73,-0.31,-1.14,10.7,0.06,-0.02,0.01
40.230663,29.009128,45.73,-0.38,-1.08,10.24,-0.02,-0.02,0.0
40.230663,29.009128,45.73,-0.69,-0.09,10.01,-0.01,-0.03,0.04
40.230663,29.009128,45.73,-0.48,0.9,9.85,-0.27,-0.06,-0.03
40.230541,29.009132,48.69,-1.07,0.88,13.18,0.03,0.0,0.01
40.230541,29.009132,48.69,-1.16,0.76,9.91,0.0,0.02,-0.01
40.230541,29.009132,48.69,-0.81,0.7,9.67,-0.02,0.01,-0.01
40.230541,29.009132,48.69,-1.57,1.48,11.83,-0.02,0.02,-0.03
40.230541,29.009132,48.69,-0.85,1.18,9.28,0.03,0.03,-0.02
40.230541,29.009132,48.69,-1.17,1.23,9.75,0.06,0.01,0.01
40.230541,29.009132,48.69,-1.41,0.87,9.89,0.03,0.02,-0.02
40.230541,29.009132,48.69,-0.54,2.0,10.45,0.04,0.01,-0.0
40.230541,29.009132,48.69,-0.82,1.5,10.3,0.02,0.0,0.0
40.230541,29.009132,48.69,-1.41,0.81,9.54,0.0,-0.03,0.01
40.230541,29.009132,48.69,-0.23,1.61,10.22,0.01,-0.0,-0.01
40.23043,29.009136,42.5,0.27,1.71,9.65,0.04,-0.02,0.01
40.23043,29.009136,42.5,-1.19,0.57,8.86,0.01,0.01,-0.01
40.23043,29.009136,42.5,-0.53,1.4,11.09,-0.02,-0.06,0.01
40.23043,29.009136,42.5,-1.06,1.36,10.31,0.01,0.01,-0.01
40.23043,29.009136,42.5,-1.36,1.14,10.91,-0.05,0.02,-0.02
40.23043,29.009136,42.5,-0.58,0.94,9.43,0.03,-0.01,-0.01
40.23043,29.009136,42.5,-1.09,1.84,11.64,0.02,-0.0,-0.01
40.23043,29.009136,42.5,-0.72,0.74,7.41,0.08,-0.01,-0.02
40.23043,29.009136,42.5,-0.35,1.47,10.04,0.02,0.0,-0.01
40.23043,29.009136,42.5,-1.14,1.58,10.34,-0.01,-0.01,-0.01
40.230339,29.00914,34.15,-0.38,1.44,9.93,-0.0,-0.02,-0.01
40.230339,29.00914,34.15,-1.2,1.17,9.34,0.03,-0.01,-0.0
40.230339,29.00914,34.15,-0.42,1.76,10.52,0.05,0.01,-0.01
40.230339,29.00914,34.15,-1.13,0.89,10.47,0.05,-0.01,-0.01
40.230339,29.00914,34.15,-0.43,1.2,10.08,0.0,-0.0,-0.01
40.230339,29.00914,34.15,-1.47,1.35,10.85,-0.01,0.01,-0.02
40.230339,29.00914,34.15,-1.1,0.8,9.29,0.05,-0.02,-0.0
40.230339,29.00914,34.15,-1.13,1.22,10.4,0.06,-0.02,0.0
40.230262,29.009141,26.22,-0.24,1.19,10.04,-0.0,-0.01,-0.01
40.230262,29.009141,26.22,-0.97,1.16,10.07,-0.01,0.01,-0.02
40.230262,29.009141,26.22,-1.03,1.27,9.94,0.01,-0.01,-0.0
40.230262,29.009141,26.22,-0.34,0.8,9.71,0.04,-0.04,-0.0
40.230262,29.009141,26.22,-0.45,1.32,10.73,-0.02,0.0,-0.01
40.230213,29.009145,18.09,-0.43,0.89,10.61,-0.0,-0.01,0.0
40.230213,29.009145,18.09,-1.24,0.89,10.59,0.02,0.0,-0.02
40.230213,29.009145,18.09,-0.59,1.62,11.37,-0.01,-0.01,-0.01
40.230182,29.009145,9.98,-0.82,0.4,10.07,0.02,0.01,0.01
40.230182,29.009145,9.98,-0.75,0.05,10.19,0.0,-0.0,-0.01
40.230182,29.009145,9.98,-0.81,-0.17,9.85,0.01,-0.0,-0.01
40.230167,29.009147,3.0,-0.82,-0.91,10.2,0.03,0.01,-0.0
40.230163,29.009147,1.02,-0.57,-1.46,10.15,0.1,0.0,-0.0
40.230163,29.009147,1.02,-0.71,-1.84,10.49,0.14,0.01,-0.0
40.230163,29.009147,1.02,-0.61,-1.88,9.91,0.02,-0.01,-0.03
40.230163,29.009147,1.02,-0.56,-1.99,10.19,0.01,-0.01,-0.01
40.230163,29.009147,1.02,-0.61,-2.35,9.97,0.0,-0.01,-0.03
40.230075,29.009151,16.91,-0.87,-1.83,9.84,0.02,-0.0,-0.01
40.230026,29.009151,22.0,-0.73,-2.03,10.29,-0.01,-0.02,-0.02
40.230026,29.009151,22.0,-0.98,-1.44,10.63,-0.03,0.05,-0.02
40.230026,29.009151,22.0,-1.2,-2.22,9.36,0.0,0.04,-0.01
40.230026,29.009151,22.0,-0.23,-2.49,7.72,0.01,-0.01,-0.02
40.230026,29.009151,22.0,-0.05,-2.65,7.69,0.08,-0.02,-0.0
40.230026,29.009151,22.0,-1.03,-1.46,10.76,0.02,-0.0,-0.03
40.229961,29.009153,26.58,-0.82,-1.41,11.41,-0.02,-0.02,-0.01
40.229961,29.009153,26.58,-0.68,-1.94,11.18,-0.01,0.01,-0.01
40.229961,29.009153,26.58,-1.24,-1.46,10.69,-0.01,0.04,-0.02
40.229961,29.009153,26.58,-0.72,-2.38,8.61,0.05,-0.02,-0.01
40.229961,29.009153,26.58,-0.69,-1.43,11.19,-0.03,0.01,-0.01
40.229961,29.009153,26.58,-0.34,-1.96,12.29,0.01,-0.06,-0.01
40.229961,29.009153,26.58,0.2,-1.95,10.59,0.02,-0.04,0.01
40.229961,29.009153,26.58,-0.05,-2.02,10.12,-0.01,-0.03,0.01
40.229961,29.009153,26.58,0.16,-1.77,9.86,0.06,-0.03,0.01
40.229961,29.009153,26.58,-0.86,-1.1,11.32,-0.01,0.0,0.01
40.229961,29.009153,26.58,-0.01,-1.62,10.13,-0.01,-0.03,0.0
40.229961,29.009153,26.58,-1.46,-2.07,9.03,-0.04,0.01,-0.01
40.229961,29.009153,26.58,-0.77,-2.5,9.49,0.05,-0.02,-0.02
40.229961,29.009153,26.58,-0.97,-1.74,10.59,-0.0,0.0,-0.02
40.229961,29.009153,26.58,-0.44,-1.66,11.06,0.05,0.0,-0.01
40.229961,29.009153,26.58,-1.2,-1.69,8.74,0.01,0.03,0.0
40.229961,29.009153,26.58,-1.09,-1.51,9.75,-0.02,0.01,-0.01
40.229961,29.009153,26.58,-0.83,-1.34,8.9,-0.01,0.02,-0.01
40.229961,29.009153,26.58,-0.82,-2.06,8.44,0.0,0.01,0.01
40.229961,29.009153,26.58,-0.78,-2.11,8.3,0.01,0.03,0.0
40.229961,29.009153,26.58,-0.27,-1.31,10.46,0.04,-0.02,-0.02
40.229961,29.009153,26.58,-1.25,-1.77,10.67,-0.02,0.04,0.0
40.229961,29.009153,26.58,-0.3,-2.18,9.22,0.01,-0.06,-0.02
40.229961,29.009153,26.58,-0.92,-1.99,8.54,0.08,-0.01,-0.01
40.229961,29.009153,26.58,-0.57,-1.81,9.87,-0.01,-0.04,-0.0
40.229701,29.009155,39.73,-1.2,-1.35,9.68,-0.01,0.04,-0.01
40.229701,29.009155,39.73,-0.57,-2.2,7.59,0.05,-0.0,-0.01
40.229701,29.009155,39.73,-0.91,-1.08,8.54,0.0,-0.0,-0.0
40.229701,29.009155,39.73,0.05,-1.56,10.52,0.01,-0.01,-0.01
40.229701,29.009155,39.73,-0.81,-1.45,10.58,-0.01,0.03,-0.01
40.229598,29.009155,43.39,-0.76,-1.68,10.5,0.02,0.03,-0.03
40.229598,29.009155,43.39,-0.74,-1.0,11.79,-0.03,0.03,0.0
40.229598,29.009155,43.39,-1.02,-1.72,10.38,-0.02,0.03,-0.01
40.229598,29.009155,43.39,-0.82,-2.24,9.63,0.01,-0.0,-0.01
40.229598,29.009155,43.39,-0.24,-1.23,10.31,-0.01,-0.03,-0.0
40.229598,29.009155,43.39,-0.68,-1.54,9.65,0.04,0.01,-0.0
40.229484,29.009157,46.99,-1.21,-1.52,8.38,0.08,0.01,0.0
40.229484,29.009157,46.99,-0.74,-0.74,11.24,0.0,0.0,-0.01
40.229484,29.009157,46.99,-0.88,-1.15,10.08,-0.0,0.03,-0.01
40.229484,29.009157,46.99,-0.26,-0.87,11.94,-0.13,0.02,-0.01
40.229484,29.009157,46.99,-0.8,-0.14,9.54,-0.09,0.02,0.01
40.229484,29.009157,46.99,-0.99,0.62,10.69,0.01,0.04,-0.01
40.229362,29.009159,49.19,-1.68,1.27,11.89,-0.05,0.06,-0.01
40.229362,29.009159,49.19,-0.78,0.56,8.84,-0.03,-0.01,-0.02
40.229362,29.009159,49.19,-1.25,1.52,9.56,-0.03,0.0,-0.01
40.229362,29.009159,49.19,-1.41,1.65,12.06,-0.02,0.03,-0.01
40.229362,29.009159,49.19,-0.92,0.52,8.36,0.13,-0.16,-0.01
40.229362,29.009159,49.19,-0.13,1.36,11.68,0.01,-0.05,0.01
40.229362,29.009159,49.19,-0.76,0.28,11.3,0.0,-0.08,0.02
40.229362,29.009159,49.19,-0.49,0.83,9.17,0.04,-0.06,0.02
40.229362,29.009159,49.19,-1.33,0.7,11.26,0.01,0.01,-0.01
40.229362,29.009159,49.19,-1.09,0.07,10.57,0.0,-0.05,0.0
40.229251,29.009159,42.26,-0.79,0.59,10.38,0.0,-0.0,-0.01
40.229251,29.009159,42.26,-0.94,0.84,11.22,-0.05,0.04,-0.03
40.229251,29.009159,42.26,-1.22,0.36,9.72,0.03,-0.01,0.0
40.229251,29.009159,42.26,-0.33,1.52,11.26,0.04,-0.03,0.01
40.229251,29.009159,42.26,-1.86,-0.2,9.32,0.05,0.01,-0.02
40.229251,29.009159,42.26,-1.36,1.05,11.42,-0.0,0.01,-0.01
40.229251,29.009159,42.26,-0.36,0.43,7.81,0.04,-0.07,-0.0
40.229251,29.009159,42.26,-0.24,0.09,10.58,-0.01,-0.07,-0.0
40.229251,29.009159,42.26,-1.3,0.93,11.23,0.04,-0.01,-0.02
40.229251,29.009159,42.26,-0.79,0.5,10.52,0.04,-0.0,-0.01
40.22916,29.00916,35.34,-0.61,0.36,9.84,0.06,0.0,-0.0
40.22916,29.00916,35.34,-0.55,0.11,10.71,0.0,-0.03,-0.01
40.22916,29.00916,35.34,-0.41,0.26,10.52,-0.05,0.02,-0.01
40.22916,29.00916,35.34,-1.27,0.41,10.31,0.01,0.02,-0.01
40.22916,29.00916,35.34,-0.57,0.62,9.93,0.02,0.01,-0.02
40.22916,29.00916,35.34,-0.97,0.97,10.86,0.02,0.01,-0.01
40.22916,29.00916,35.34,-1.03,0.04,9.8,-0.01,-0.02,-0.01
40.22916,29.00916,35.34,-0.75,0.09,8.73,0.01,-0.03,-0.01
40.229084,29.00916,28.8,-0.62,0.87,9.69,-0.01,-0.01,-0.01
40.229084,29.00916,28.8,-0.62,0.33,10.63,-0.02,-0.02,-0.0
40.229084,29.00916,28.8,-1.12,0.67,10.83,-0.02,0.03,-0.02
40.229084,29.00916,28.8,-1.13,0.36,10.45,0.02,-0.0,-0.01
40.229084,29.00916,28.8,-0.5,1.07,10.96,-0.01,0.03,-0.02
40.229084,29.00916,28.8,-1.62,0.57,9.98,0.03,-0.02,-0.0
40.229084,29.00916,28.8,-0.62,1.13,10.84,0.01,-0.0,-0.01
40.229084,29.00916,28.8,-1.47,0.47,10.26,0.02,-0.0,-0.01
40.229084,29.00916,28.8,-0.8,0.57,9.66,0.02,-0.0,-0.01
40.229084,29.00916,28.8,-1.81,0.73,10.41,0.01,-0.0,-0.01
40.229026,29.009162,22.46,-1.31,0.5,10.28,0.02,-0.01,-0.01
40.229026,29.009162,22.46,-0.23,0.36,10.49,0.0,-0.05,0.0
40.229026,29.009162,22.46,-1.01,0.49,11.25,-0.02,0.0,-0.02
40.229026,29.009162,22.46,-1.04,0.44,10.37,0.02,-0.03,-0.0
40.228981,29.009162,16.43,-1.36,0.74,10.42,0.06,-0.01,-0.01
40.228981,29.009162,16.43,-0.93,0.14,10.29,0.04,0.01,0.0
40.22895,29.009164,10.7,-0.64,0.31,10.47,-0.0,-0.01,-0.01
40.22895,29.009164,10.7,-0.89,-0.76,10.45,0.04,0.02,-0.0
40.228321,29.009265,0.02,-0.37,-0.78,10.05,0.01,-0.0,-0.01
40.228324,29.009265,0.33,-0.3,-0.99,10.39,0.0,-0.0,-0.01
40.228466,29.009275,20.83,0.15,-1.49,10.45,-0.0,-0.0,-0.0
40.228523,29.009273,24.52,0.2,-1.5,10.69,0.01,-0.03,0.0
40.228523,29.009273,24.52,-0.28,-1.95,11.26,0.01,-0.01,-0.01
40.228523,29.009273,24.52,-0.5,-0.88,9.99,0.04,0.01,0.0
40.228523,29.009273,24.52,-0.19,-1.98,9.02,-0.0,-0.0,-0.01
40.228523,29.009273,24.52,-0.04,-1.51,10.8,0.03,0.02,0.0
40.228523,29.009273,24.52,-0.06,-1.51,8.72,0.05,0.01,-0.02
40.228523,29.009273,24.52,-0.14,-1.29,11.48,0.03,0.02,-0.01
40.228523,29.009273,24.52,-0.05,-2.13,8.12,-0.0,-0.0,-0.01
40.228523,29.009273,24.52,-0.04,-1.06,11.67,0.02,0.03,-0.0
40.228523,29.009273,24.52,0.17,-1.24,11.68,0.02,0.02,-0.01
40.228523,29.009273,24.52,-0.83,-1.36,10.65,-0.01,0.01,-0.02
40.228595,29.009269,28.71,-0.35,-1.58,12.21,0.02,0.01,-0.0
40.228595,29.009269,28.71,0.13,-1.26,11.04,-0.0,-0.01,-0.01
40.228595,29.009269,28.71,-0.28,-1.54,11.04,0.01,0.01,-0.01
40.228595,29.009269,28.71,-0.17,-1.35,9.76,0.02,0.0,-0.0
40.228595,29.009269,28.71,-0.38,-1.28,9.12,0.03,0.01,-0.0
40.228595,29.009269,28.71,0.09,-1.68,10.37,0.01,-0.0,-0.01
40.228672,29.009273,32.58,-0.48,-1.53,10.3,0.01,-0.01,-0.01
40.228672,29.009273,32.58,0.29,-1.57,10.03,0.02,-0.02,-0.02
40.228672,29.009273,32.58,-0.18,-1.7,10.78,0.0,-0.02,-0.01
40.228672,29.009273,32.58,-0.14,-1.42,10.3,0.01,-0.02,-0.01
40.228759,29.009275,34.74,0.28,-1.12,10.87,0.01,-0.0,-0.0
40.228759,29.009275,34.74,0.16,-1.47,9.46,-0.01,-0.01,-0.0
40.228858,29.009271,40.61,-0.06,-1.29,10.83,0.01,0.0,-0.01
40.228965,29.009267,44.17,0.05,-0.78,9.73,0.01,-0.0,-0.01
40.228965,29.009267,44.17,0.76,-1.14,10.11,0.03,-0.01,-0.01
40.228965,29.009267,44.17,-0.85,-1.14,10.04,0.01,0.01,-0.0
40.228965,29.009267,44.17,-0.32,-0.99,11.06,0.02,-0.0,-0.01
40.228965,29.009267,44.17,-0.63,-0.29,9.21,0.01,0.0,-0.0
40.228965,29.009267,44.17,-0.24,-0.4,11.66,0.01,-0.0,0.0
40.22908,29.009263,45.82,-0.37,0.6,9.74,0.02,-0.01,0.0
40.22908,29.009263,45.82,-0.37,1.45,11.34,0.02,-0.0,0.01
40.22908,29.009263,45.82,-0.63,1.14,10.17,0.01,0.01,0.0
40.22908,29.009263,45.82,-0.4,1.48,10.64,0.02,-0.0,0.01
40.22908,29.009263,45.82,-0.26,1.91,10.12,0.0,0.0,-0.0
40.229202,29.00926,49.04,-0.32,2.32,10.41,0.02,-0.0,-0.0
40.229202,29.00926,49.04,-0.49,1.88,9.36,0.0,0.01,-0.01
40.229202,29.00926,49.04,-0.7,1.76,11.36,0.0,-0.02,-0.01
40.229202,29.00926,49.04,-0.6,2.26,10.82,0.03,0.01,-0.01
40.229202,29.00926,49.04,-0.53,1.77,10.3,0.0,-0.0,-0.01
40.229312,29.009256,43.28,-0.81,2.05,10.63,0.0,-0.0,-0.01
40.2294,29.009252,32.43,-0.71,2.35,10.58,0.02,-0.01,-0.0
40.229503,29.009252,16.52,-0.44,1.58,10.27,0.01,-0.0,-0.01
40.229503,29.009252,16.52,-0.46,1.37,10.18,0.01,-0.0,-0.02
40.229537,29.009252,1.8,1.42,0.38,14.58,-1.45,4.37,-0.34
40.229537,29.009252,1.8,-0.34,0.0,9.12,0.13,-0.05,-0.08
40.229675,29.009256,21.41,0.24,-1.68,11.06,0.02,-0.01,-0.0
40.229675,29.009256,21.41,-0.28,-1.13,10.06,0.02,0.06,-0.01
40.229675,29.009256,21.41,-0.07,-1.63,9.18,0.0,-0.04,-0.02
40.229675,29.009256,21.41,-0.28,-1.15,9.4,0.02,0.04,-0.01
40.229675,29.009256,21.41,-1.03,-1.69,11.11,0.0,0.09,-0.02
40.229675,29.009256,21.41,-0.26,-1.17,9.94,0.01,0.09,-0.02
40.229675,29.009256,21.41,0.14,-1.29,8.76,0.0,0.12,-0.01
40.229736,29.009252,27.47,0.17,-1.4,10.35,-0.01,0.08,-0.01
40.229736,29.009252,27.47,-0.6,-0.7,11.36,0.04,-0.07,-0.01
40.229736,29.009252,27.47,0.03,-2.06,8.59,0.02,-0.09,-0.02
40.229736,29.009252,27.47,-0.31,-1.71,9.45,-0.01,0.11,-0.01
40.229736,29.009252,27.47,-0.21,-1.4,10.11,0.0,0.05,-0.01
40.229736,29.009252,27.47,-0.16,-1.45,11.4,0.02,-0.01,-0.01
40.229736,29.009252,27.47,-0.29,-0.93,9.97,0.04,-0.06,-0.01
40.229736,29.009252,27.47,0.2,-1.75,10.51,-0.02,0.07,-0.01
40.229808,29.009248,30.72,-0.66,-1.48,9.83,0.04,-0.05,-0.01
40.229808,29.009248,30.72,-0.01,-1.3,10.58,0.03,-0.03,-0.01
40.229808,29.009248,30.72,-0.32,-1.24,9.64,0.03,-0.05,-0.01
40.229892,29.009244,35.95,0.21,-1.41,9.7,0.01,0.02,-0.0
40.229892,29.009244,35.95,-0.29,-1.54,9.72,0.01,0.03,-0.01
40.229892,29.009244,35.95,0.03,-1.4,10.86,0.02,0.01,-0.01
40.229991,29.009241,41.98,-0.11,-1.0,10.56,0.03,-0.06,-0.01
40.229991,29.009241,41.98,-0.63,-1.12,9.68,0.03,-0.01,-0.01
40.230098,29.009237,44.52,-0.16,-1.12,10.71,0.03,0.02,-0.0
40.230098,29.009237,44.52,-0.06,-0.85,11.45,-0.01,0.01,-0.01
40.230098,29.009237,44.52,-0.45,-0.4,10.68,-0.0,0.01,-0.0
40.230216,29.009235,48.45,-0.47,1.5,9.83,0.06,-0.01,-0.01
40.230216,29.009235,48.45,-1.05,2.53,10.15,0.0,0.02,-0.02
40.230216,29.009235,48.45,0.02,2.52,10.63,0.02,-0.0,-0.03
40.230216,29.009235,48.45,-1.58,3.04,10.97,0.02,0.04,-0.02
40.230216,29.009235,48.45,-1.24,2.89,11.51,0.0,-0.0,-0.01
40.230216,29.009235,48.45,-0.73,2.72,10.65,0.01,0.0,-0.01
40.230331,29.009237,46.08,-0.48,2.79,9.82,-0.0,-0.01,-0.01
40.230331,29.009237,46.08,-0.81,2.65,11.12,0.03,0.0,-0.02
40.230422,29.009241,33.54,-0.29,2.42,10.81,0.0,-0.01,-0.01
40.230575,29.009239,11.46,-0.52,0.96,10.28,0.02,0.0,-0.01
40.230575,29.009239,11.46,-0.47,0.73,10.13,0.01,0.0,-0.01
40.23059,29.009237,2.04,-0.29,-0.83,10.21,0.01,-0.01,-0.01
40.23059,29.009237,2.04,-0.11,-1.46,10.31,0.0,-0.01,-0.01
40.23059,29.009237,2.04,-0.3,-1.69,9.73,0.01,-0.0,-0.01
40.230697,29.009241,19.76,-0.67,-1.3,10.87,-0.01,0.0,-0.01
40.230697,29.009241,19.76,-0.28,-1.83,11.07,0.02,0.01,-0.01
40.230697,29.009241,19.76,-0.48,-1.65,8.73,-0.02,0.04,-0.02
40.230697,29.009241,19.76,0.28,-1.58,9.29,0.01,0.01,-0.0
40.230697,29.009241,19.76,-0.77,-1.63,11.95,-0.0,0.01,-0.01
40.230697,29.009241,19.76,-0.84,-1.89,9.9,-0.02,-0.0,-0.02
40.230697,29.009241,19.76,-0.26,-0.51,12.12,0.02,0.01,0.0
40.230697,29.009241,19.76,-0.3,-2.08,9.74,0.01,-0.09,-0.01
40.230697,29.009241,19.76,-0.53,-0.8,12.05,0.03,0.0,-0.01
40.230697,29.009241,19.76,-0.22,-1.81,8.92,0.01,-0.08,-0.0
40.230697,29.009241,19.76,0.19,-0.96,9.67,0.04,0.02,0.01
40.230697,29.009241,19.76,0.17,-1.37,12.51,0.03,-0.01,-0.02
40.230697,29.009241,19.76,-0.36,-1.34,11.69,0.03,0.02,-0.01
40.230697,29.009241,19.76,0.04,-1.63,7.76,-0.0,0.04,0.0
40.230827,29.009244,29.84,-0.16,-2.54,10.03,-0.0,-0.01,-0.0
40.230827,29.009244,29.84,-0.58,-1.85,8.9,-0.01,0.05,-0.01
40.230827,29.009244,29.84,-0.18,-0.7,9.46,0.04,-0.08,-0.01
40.230827,29.009244,29.84,-0.59,-0.54,9.85,0.03,-0.09,-0.01
40.230827,29.009244,29.84,-0.19,-1.01,11.3,0.01,-0.0,-0.01
40.230827,29.009244,29.84,-0.33,-0.3,10.95,0.01,0.0,-0.01
40.230907,29.009246,34.15,-0.26,-0.52,9.61,0.01,-0.02,-0.01
40.230907,29.009246,34.15,-0.32,-1.2,10.25,0.02,-0.01,-0.0
40.230907,29.009246,34.15,-0.55,-1.73,10.5,0.02,-0.02,-0.01
40.230907,29.009246,34.15,0.05,-1.31,9.5,-0.01,-0.03,-0.0
40.230907,29.009246,34.15,0.09,-1.36,11.03,-0.0,-0.01,-0.0
40.230907,29.009246,34.15,-0.44,-1.22,10.86,0.01,-0.0,-0.01
40.230907,29.009246,34.15,-0.27,-1.66,11.14,-0.01,-0.04,-0.0
40.230907,29.009246,34.15,0.07,-1.26,10.85,-0.01,-0.02,0.01
40.230907,29.009246,34.15,0.18,-0.9,9.82,0.01,-0.03,0.01
40.230907,29.009246,34.15,-0.16,-1.17,9.46,0.02,-0.05,-0.02
40.230907,29.009246,34.15,0.16,-1.77,10.4,-0.03,-0.02,0.0
40.230991,29.009246,32.76,-0.33,-1.21,10.37,0.0,0.0,0.0
40.230991,29.009246,32.76,-0.22,-1.79,8.65,0.02,0.02,0.01
40.231086,29.009241,38.8,-0.5,-1.05,9.94,-0.0,0.02,0.0
40.231086,29.009241,38.8,-0.22,-0.95,10.7,-0.01,-0.01,-0.01
40.231086,29.009241,38.8,-0.18,-1.12,11.53,-0.01,0.01,-0.0
40.231086,29.009241,38.8,-0.2,-1.01,10.82,0.0,0.01,-0.0
40.231296,29.009227,43.84,-0.71,-1.42,9.71,-0.03,-0.01,-0.0
40.231296,29.009227,43.84,0.47,-0.81,9.63,-0.01,-0.0,0.0
40.231296,29.009227,43.84,-0.53,0.28,10.65,0.0,0.01,-0.0
40.231296,29.009227,43.84,-0.49,1.5,10.92,0.02,-0.0,-0.01
40.231296,29.009227,43.84,-0.7,2.07,10.37,0.0,-0.02,-0.01
40.231296,29.009227,43.84,-0.68,1.99,11.24,0.0,-0.02,-0.02
40.231296,29.009227,43.84,-0.44,2.31,10.55,0.01,-0.02,-0.03
40.231296,29.009227,43.84,-0.51,1.99,9.22,0.04,0.0,-0.01
40.231422,29.009223,48.65,-0.57,1.88,10.5,-0.0,-0.02,-0.01
40.231422,29.009223,48.65,-0.3,1.87,9.92,0.02,0.01,-0.01
40.231533,29.009218,41.47,-0.27,1.45,9.68,0.01,-0.0,-0.01
40.231533,29.009218,41.47,-0.45,1.73,9.14,0.01,0.01,-0.01
40.231533,29.009218,41.47,-1.2,2.23,10.85,0.02,0.01,-0.01
40.231533,29.009218,41.47,-0.45,1.84,10.68,0.02,-0.0,-0.01
40.231533,29.009218,41.47,-0.37,2.32,10.25,0.02,-0.0,-0.0
40.231533,29.009218,41.47,-0.35,1.49,10.37,0.0,0.0,-0.01
40.23162,29.009212,33.41,-1.22,1.59,9.91,0.03,0.01,-0.0
40.23162,29.009212,33.41,-1.25,1.47,11.4,0.01,0.0,-0.01
40.23162,29.009212,33.41,-0.35,1.56,10.32,0.02,0.0,-0.0
40.231887,29.009206,12.3,-0.25,-0.77,10.16,0.01,-0.0,-0.02
40.229431,29.009071,21.96,0.66,-0.22,9.79,0.01,-0.0,0.04
40.229431,29.009071,21.96,-0.03,-0.33,10.44,0.02,-0.0,0.04
40.229324,29.009078,21.84,-0.17,-0.27,10.28,0.01,-0.0,0.0
40.229267,29.009084,22.41,-0.26,-0.35,10.35,0.02,0.01,-0.01
40.229152,29.009099,22.72,-0.72,-0.18,9.67,0.01,0.02,-0.02
40.229152,29.009099,22.72,-0.45,0.01,9.67,0.01,0.01,-0.02
40.229095,29.009105,22.48,-0.56,0.27,9.96,0.02,-0.0,-0.04
40.22874,29.009086,16.74,0.05,-0.76,10.32,0.01,-0.01,-0.01
40.228698,29.009288,24.76,0.15,-0.26,10.49,0.0,-0.02,0.0
40.228698,29.009288,24.76,-0.03,-0.44,9.79,0.01,-0.01,0.0
40.228763,29.00929,25.04,0.46,0.03,9.7,0.01,-0.0,0.0
40.228824,29.009294,25.15,0.17,-0.14,10.14,0.01,0.0,0.0
40.228824,29.009294,25.15,-0.07,-0.36,10.27,0.01,0.0,0.01
40.228824,29.009294,25.15,-0.0,-0.87,9.87,0.01,0.0,-0.01
40.228889,29.009294,25.17,-0.55,-0.38,9.81,0.01,0.02,-0.02
40.228954,29.00929,26.08,-0.82,-0.05,10.58,0.01,0.02,-0.01
40.228954,29.00929,26.08,-0.28,-0.31,11.33,-0.0,0.01,-0.01
40.229084,29.00929,25.15,-0.12,-0.15,10.06,-0.0,-0.01,-0.01
40.229084,29.00929,25.15,0.04,-0.36,10.44,0.01,0.02,-0.02
40.229148,29.00929,26.45,-0.76,-0.22,10.18,0.01,0.02,-0.01
40.229148,29.00929,26.45,-0.12,-0.39,10.34,-0.0,-0.01,-0.01
40.229423,29.009286,27.34,-0.66,0.08,10.84,0.02,-0.0,-0.04
40.229423,29.009286,27.34,-1.11,0.43,10.65,0.0,0.0,-0.04
40.229423,29.009286,27.34,-0.95,0.08,10.54,0.01,-0.0,-0.04
40.22977,29.009199,15.24,1.19,-1.01,9.93,-0.01,-0.01,0.23
40.229816,29.009212,19.3,1.02,-0.93,10.5,-0.01,0.0,0.2
40.229816,29.009212,19.3,0.41,-0.93,10.69,-0.0,0.01,0.16
40.229816,29.009212,19.3,0.2,-1.07,10.5,-0.01,0.02,0.09
40.229816,29.009212,19.3,0.05,-1.14,10.02,0.01,0.02,0.07
40.229869,29.009214,22.54,0.11,-1.4,10.24,0.01,0.01,0.03
40.229869,29.009214,22.54,-0.2,-0.8,10.29,-0.0,0.01,0.01
40.229869,29.009214,22.54,-0.33,-1.18,9.57,-0.0,0.01,-0.01
40.229869,29.009214,22.54,-0.54,-1.41,10.82,0.01,0.02,-0.02
40.229869,29.009214,22.54,-0.13,-0.64,10.09,0.02,0.01,-0.02
40.229869,29.009214,22.54,-0.31,-0.62,10.98,0.03,0.03,-0.01
40.229869,29.009214,22.54,-0.31,-0.78,9.63,0.0,0.0,-0.02
40.229934,29.009214,25.87,0.03,-1.4,9.13,0.01,-0.0,-0.01
40.229934,29.009214,25.87,-0.23,-1.2,8.83,0.02,-0.01,-0.01
40.229934,29.009214,25.87,-0.06,-1.39,8.75,0.01,0.0,0.0
40.230003,29.009216,29.09,-0.28,-0.41,10.73,-0.0,-0.01,-0.01
40.230003,29.009216,29.09,-0.09,-0.51,11.68,0.02,-0.01,-0.01
40.230003,29.009216,29.09,-0.19,-0.86,10.0,0.01,-0.01,-0.0
40.230003,29.009216,29.09,-0.45,-0.51,11.2,0.02,-0.0,-0.02
40.230163,29.009222,34.08,-0.17,-0.69,9.95,0.01,0.01,-0.0
40.230163,29.009222,34.08,-0.18,-0.64,9.33,0.0,0.02,-0.01
40.230163,29.009222,34.08,-0.34,-0.21,10.11,0.02,0.0,-0.01
40.230163,29.009222,34.08,-0.95,-0.59,9.63,0.01,0.02,-0.01
40.230255,29.009225,36.56,-0.76,-0.58,10.75,0.01,-0.0,-0.01
40.230255,29.009225,36.56,-0.8,-0.37,10.53,-0.01,0.01,0.0
40.230255,29.009225,36.56,0.02,-0.28,10.72,0.0,0.0,-0.01
40.230255,29.009225,36.56,-0.09,-0.54,9.53,0.01,-0.01,-0.0
40.23035,29.009231,36.8,-0.52,-0.21,10.12,0.01,-0.0,-0.02
40.230529,29.009241,34.91,-0.6,0.43,9.43,-0.0,-0.0,-0.01
40.230529,29.009241,34.91,-0.45,0.2,10.46,0.01,-0.0,-0.03
40.230613,29.009246,32.8,-1.07,0.62,10.91,0.02,0.0,-0.04
40.230758,29.009258,26.09,-0.26,0.81,10.64,-0.0,-0.01,-0.03
40.231033,29.009265,16.08,0.57,0.08,10.36,-0.01,-0.02,0.19
40.230968,29.008995,17.37,-0.35,-1.97,10.07,-0.0,0.01,-0.01
40.230857,29.009,25.95,0.13,-1.65,8.47,-0.01,-0.01,-0.01
40.230857,29.009,25.95,-0.42,-1.85,10.58,0.02,-0.01,-0.03
40.230857,29.009,25.95,0.17,-0.8,8.61,0.01,0.02,-0.01
40.230857,29.009,25.95,-0.69,-1.39,10.8,0.02,0.0,-0.03
40.230857,29.009,25.95,0.11,-0.78,8.95,0.04,0.02,-0.03
40.230857,29.009,25.95,-0.31,-1.17,10.43,0.02,-0.01,-0.02
40.230857,29.009,25.95,-0.3,-0.68,11.5,0.02,-0.01,-0.02
40.230857,29.009,25.95,-0.01,-1.61,8.22,0.0,-0.01,-0.0
40.230789,29.009,28.63,0.26,-1.01,10.21,0.01,-0.0,0.01
40.230789,29.009,28.63,0.28,-1.26,9.19,0.01,-0.01,0.0
40.230789,29.009,28.63,-0.01,-0.76,11.26,0.0,0.01,-0.01
40.230789,29.009,28.63,-0.3,-1.21,9.16,0.03,0.01,-0.0
40.230789,29.009,28.63,-0.5,-1.26,9.73,0.01,0.01,-0.0
40.230789,29.009,28.63,0.55,-1.16,9.87,0.0,0.01,0.01
40.230712,29.009002,31.34,-0.17,-0.35,10.12,0.01,0.01,-0.01
40.230628,29.009004,33.39,-0.49,-1.05,9.91,0.03,-0.01,-0.01
40.230545,29.009006,34.61,-0.73,-0.88,9.91,0.01,-0.01,-0.01
40.230545,29.009006,34.61,0.09,-1.0,9.55,0.01,0.02,-0.01
40.230545,29.009006,34.61,0.1,-0.43,9.67,0.04,0.02,-0.01
40.230453,29.009008,36.56,-0.34,-0.39,10.73,0.0,0.01,-0.01
40.230453,29.009008,36.56,-0.01,-0.78,9.5,0.01,0.01,-0.01
40.230453,29.009008,36.56,-0.44,-0.85,10.85,0.01,-0.0,-0.01
40.230361,29.009008,37.74,0.08,-0.53,9.45,0.01,0.0,0.0
40.230361,29.009008,37.74,-0.71,-0.95,10.5,0.01,0.01,-0.01
40.230361,29.009008,37.74,-0.23,-0.35,11.46,-0.01,-0.0,-0.01
40.230361,29.009008,37.74,0.12,-0.76,10.14,0.01,0.01,-0.01
40.230361,29.009008,37.74,-0.43,-0.37,10.32,0.0,-0.0,-0.02
40.230262,29.009008,39.06,-0.07,-0.35,9.02,-0.0,-0.01,-0.01
40.230262,29.009008,39.06,-0.11,-0.62,10.74,0.02,-0.02,-0.01
40.230262,29.009008,39.06,-0.22,-0.75,9.87,0.01,-0.02,-0.02
40.230262,29.009008,39.06,-0.89,-0.65,11.35,0.02,-0.01,-0.01
40.230262,29.009008,39.06,-0.37,-0.82,10.42,0.03,-0.01,-0.01
40.230163,29.00901,40.06,-0.27,-0.6,9.85,0.0,0.0,-0.0
40.230163,29.00901,40.06,-0.15,-0.44,11.14,0.02,0.0,-0.0
40.230163,29.00901,40.06,-0.51,-0.25,11.4,0.02,0.02,-0.01
40.23006,29.00901,40.06,-0.6,-0.51,11.08,0.02,0.01,-0.01
40.23006,29.00901,40.06,0.0,-0.44,9.39,-0.01,0.0,-0.0
40.23006,29.00901,40.06,-0.89,-0.34,10.32,0.02,0.01,-0.01
40.23006,29.00901,40.06,-0.19,-0.48,10.25,0.01,0.01,-0.01
40.229957,29.009012,41.91,0.36,-0.39,9.39,0.0,-0.02,-0.01
40.229957,29.009012,41.91,-0.69,-0.14,10.38,0.02,0.01,-0.01
40.22985,29.009014,42.52,-0.77,-0.42,10.35,-0.0,0.01,-0.01
40.22985,29.009014,42.52,-0.48,0.01,9.57,0.01,0.01,0.0
40.22985,29.009014,42.52,-0.2,-0.2,10.47,0.01,0.01,-0.01
40.22985,29.009014,42.52,-0.2,0.45,11.48,-0.0,0.01,-0.01
40.22985,29.009014,42.52,-0.1,-0.42,9.05,0.0,-0.0,-0.02
40.229743,29.009014,42.32,-0.52,0.15,9.62,0.01,-0.0,-0.01
40.229743,29.009014,42.32,-0.36,0.16,10.05,-0.01,-0.0,-0.02
40.229743,29.009014,42.32,-0.67,-0.12,10.36,0.04,-0.01,-0.01
40.229743,29.009014,42.32,-0.18,-0.34,9.67,0.01,-0.0,-0.02
40.229743,29.009014,42.32,0.11,-0.49,9.94,-0.01,-0.02,-0.01
40.229743,29.009014,42.32,-0.39,-0.48,9.02,0.02,-0.01,-0.02
40.229534,29.009014,40.8,-0.06,-0.35,10.4,0.02,-0.01,0.0
40.229534,29.009014,40.8,-0.07,-0.19,10.6,0.02,-0.02,-0.0
40.229434,29.009014,40.3,-0.06,-0.55,8.83,0.02,-0.01,-0.0
40.229434,29.009014,40.3,-0.14,-0.17,10.53,0.01,-0.02,-0.0
40.229331,29.009014,41.08,-0.05,-0.81,9.61,-0.0,0.01,-0.01
40.229331,29.009014,41.08,-0.68,-1.05,10.14,-0.01,0.01,-0.02
40.229331,29.009014,41.08,-0.26,-0.89,10.38,-0.01,0.0,-0.01
40.229331,29.009014,41.08,-0.38,-0.73,10.45,0.01,0.01,-0.01
40.229225,29.009016,42.21,0.17,-0.53,9.15,0.02,-0.0,-0.0
40.229225,29.009016,42.21,-0.11,-0.85,8.15,0.03,-0.0,-0.01
40.229225,29.009016,42.21,0.0,-0.77,10.22,0.04,0.01,-0.0
40.229118,29.009017,43.89,-0.74,-0.56,9.9,0.02,0.01,-0.0
40.229118,29.009017,43.89,-0.0,-0.46,11.03,0.01,0.0,-0.01
40.229118,29.009017,43.89,0.0,-0.65,10.29,0.02,-0.01,-0.0
40.229118,29.009017,43.89,0.34,-0.34,9.46,0.02,-0.01,-0.01
40.229003,29.009017,44.99,-0.1,-0.06,11.22,0.01,-0.02,-0.02
40.229003,29.009017,44.99,-0.6,0.08,9.5,0.0,0.01,-0.01
40.229003,29.009017,44.99,-0.44,-0.37,9.01,-0.0,0.0,-0.01
40.229003,29.009017,44.99,-0.2,-0.25,9.66,0.02,0.0,-0.02
40.229003,29.009017,44.99,-0.15,2.5,13.62,0.02,0.04,-0.01
40.229003,29.009017,44.99,-0.6,1.25,10.67,0.04,0.01,-0.0
40.228889,29.009019,45.26,-0.42,1.75,10.47,-0.01,0.01,-0.01
40.228889,29.009019,45.26,0.15,1.59,9.39,-0.01,0.0,-0.01
40.228889,29.009019,45.26,-0.51,1.88,9.02,0.01,0.0,-0.01
40.228889,29.009019,45.26,-0.13,2.07,10.02,0.02,-0.02,-0.0
40.228889,29.009019,45.26,0.0,1.39,11.46,0.03,-0.02,-0.0
40.228889,29.009019,45.26,0.52,2.75,10.07,-0.02,-0.01,-0.01
40.228889,29.009019,45.26,-0.2,2.63,7.52,-0.01,-0.02,0.01
40.228889,29.009019,45.26,-0.72,1.85,11.8,0.02,-0.02,-0.01
40.228889,29.009019,45.26,-0.17,0.96,10.28,-0.01,0.0,-0.03
40.228889,29.009019,45.26,-0.02,1.59,10.49,0.01,0.01,-0.02
40.228786,29.009019,39.91,0.17,2.0,12.04,-0.01,-0.01,-0.04
40.228786,29.009019,39.91,-0.49,2.79,10.02,0.03,-0.0,-0.01
40.228786,29.009019,39.91,-0.65,1.59,9.54,0.0,0.0,-0.01
40.228786,29.009019,39.91,-0.32,2.28,8.31,-0.01,-0.01,-0.01
40.228786,29.009019,39.91,-1.12,1.7,10.85,0.01,-0.0,-0.02
40.228786,29.009019,39.91,1.09,1.38,11.61,-0.02,-0.02,-0.03
40.228786,29.009019,39.91,-0.19,2.45,9.3,0.06,0.02,-0.01
40.228786,29.009019,39.91,-0.27,1.39,8.46,0.01,-0.02,-0.0
40.228786,29.009019,39.91,-0.76,1.72,11.61,0.03,0.0,-0.0
40.228786,29.009019,39.91,-0.4,2.49,12.35,-0.01,-0.01,-0.01
40.228786,29.009019,39.91,-0.45,1.79,9.31,0.01,0.0,-0.01
40.228786,29.009019,39.91,0.01,1.64,9.59,0.02,-0.0,-0.01
40.228786,29.009019,39.91,-0.09,2.14,10.81,0.0,-0.02,-0.02
40.228786,29.009019,39.91,-0.32,2.07,11.01,-0.01,0.01,0.0
40.228786,29.009019,39.91,-0.76,1.49,11.77,-0.01,0.0,-0.01
40.228786,29.009019,39.91,-1.06,2.07,9.62,0.02,-0.0,-0.0
40.228786,29.009019,39.91,0.32,2.12,10.5,0.01,0.01,-0.01
40.228633,29.009017,24.71,-0.34,2.27,11.02,0.02,-0.0,-0.02
40.228633,29.009017,24.71,0.08,3.15,5.18,0.02,0.07,-0.02
40.228633,29.009017,24.71,0.03,2.38,10.38,0.0,-0.04,-0.0
40.228633,29.009017,24.71,-0.21,2.84,10.3,0.01,-0.01,-0.02
40.228633,29.009017,24.71,-0.22,2.11,10.19,0.02,-0.01,-0.01
40.228591,29.009017,14.8,0.4,1.89,9.7,-0.0,-0.01,-0.02
40.228569,29.009016,5.43,-0.4,1.71,10.32,0.01,-0.0,-0.01
40.228569,29.009017,0.09,-0.25,-0.9,10.29,0.01,-0.0,-0.01
40.228542,29.009019,8.02,-0.21,-0.83,10.06,-0.0,-0.01,-0.01
40.228515,29.009019,10.37,-0.39,-0.58,10.5,0.01,0.02,-0.01
40.228515,29.009019,10.37,0.38,-0.94,10.4,0.01,-0.01,-0.01
40.228412,29.009019,16.33,0.33,-0.28,10.27,0.02,-0.02,-0.01
40.228412,29.009019,16.33,-0.03,-0.62,10.3,-0.0,-0.01,-0.01
40.228366,29.009019,17.74,-0.51,-0.66,9.62,0.01,0.01,-0.01
40.228321,29.009019,18.87,-0.49,-0.22,9.39,0.03,0.0,-0.01
40.228321,29.009019,18.87,0.11,-0.56,10.59,-0.01,0.02,-0.0
40.228321,29.009019,18.87,-0.82,-0.53,10.21,0.01,0.01,-0.01
40.228321,29.009019,18.87,-0.38,-0.5,10.14,-0.01,-0.01,-0.0
40.228271,29.009017,19.26,0.32,-0.07,10.42,0.02,-0.0,-0.0
40.228271,29.009017,19.26,-0.07,-0.04,10.59,0.03,0.0,-0.0
40.228271,29.009017,19.26,0.0,-0.35,10.66,0.01,0.0,-0.01
40.228221,29.009016,19.72,-0.18,-0.28,10.57,0.02,-0.0,-0.0
40.228172,29.009016,19.54,-0.5,-0.49,9.66,0.0,0.0,-0.01
40.228126,29.009014,19.32,-0.74,-0.22,10.29,0.02,-0.0,-0.01
40.228126,29.009014,19.32,-0.4,-0.18,10.09,0.02,0.0,-0.0
40.228126,29.009014,19.32,0.09,0.16,10.16,0.03,0.02,-0.01
40.228076,29.009014,19.48,0.55,-0.17,10.94,-0.01,-0.02,-0.02
40.228076,29.009014,19.48,-0.7,-0.3,10.27,0.0,-0.01,-0.0
40.227909,29.009191,15.61,1.62,-0.93,10.36,0.0,0.02,0.28
40.227909,29.009191,15.61,1.03,-0.85,10.5,-0.01,0.01,0.25
40.227909,29.009191,15.61,0.48,-1.11,9.75,0.01,0.02,0.21
40.227909,29.009191,15.61,0.53,-0.88,10.41,-0.01,0.03,0.2
40.227909,29.009191,15.61,0.42,-1.23,10.4,-0.02,0.02,0.18
40.227951,29.009201,18.61,0.31,-0.92,9.93,0.02,0.02,0.15
40.227951,29.009201,18.61,0.21,-1.19,10.26,-0.03,0.03,0.12
40.227951,29.009201,18.61,0.22,-0.97,10.65,-0.01,0.02,0.1
40.227951,29.009201,18.61,-0.12,-1.49,9.83,-0.01,0.03,0.08
40.227951,29.009201,18.61,0.03,-1.07,10.41,-0.01,0.02,0.04
40.227951,29.009201,18.61,-0.47,-1.36,9.8,-0.01,0.01,0.02
40.228008,29.009204,24.09,-0.14,-1.28,11.23,0.0,-0.01,0.01
40.228008,29.009204,24.09,-0.87,-0.88,10.94,0.02,0.02,-0.0
40.228008,29.009204,24.09,0.13,-1.34,8.86,-0.02,0.01,-0.0
40.228008,29.009204,24.09,-0.31,-1.56,9.27,-0.02,-0.01,-0.01
40.228008,29.009204,24.09,-0.48,-0.84,10.96,0.02,0.02,-0.01
40.228008,29.009204,24.09,-0.06,-0.98,11.69,0.02,0.02,-0.0
40.228008,29.009204,24.09,-0.16,-0.93,8.58,0.01,0.02,-0.01
40.228069,29.009201,24.96,-0.42,-1.35,9.66,0.0,-0.0,-0.01
40.228069,29.009201,24.96,-0.05,-1.53,9.04,0.0,-0.01,-0.02
40.228069,29.009201,24.96,-0.36,-1.25,8.84,0.02,0.0,-0.01
40.228069,29.009201,24.96,-0.54,-1.0,10.9,0.02,0.01,-0.01
40.228069,29.009201,24.96,-0.26,-0.92,11.68,0.01,-0.02,-0.02
40.228069,29.009201,24.96,-0.48,-0.93,10.93,0.0,-0.01,-0.01
40.228069,29.009201,24.96,-0.07,-1.33,9.89,0.03,-0.01,-0.01
40.228069,29.009201,24.96,-0.67,-1.41,10.82,-0.02,-0.0,-0.01
40.228137,29.009195,27.5,-0.09,-0.6,10.27,0.0,-0.0,-0.01
40.228137,29.009195,27.5,-0.02,-1.14,12.04,0.04,0.03,-0.0
40.228137,29.009195,27.5,-0.54,-1.24,9.66,0.01,0.0,-0.01
40.228214,29.009191,31.21,-0.45,-1.61,10.67,0.02,-0.01,-0.0
40.228302,29.009189,35.47,-0.27,-1.11,9.93,0.01,0.01,-0.02
40.228302,29.009189,35.47,-0.49,-1.48,10.25,-0.0,0.0,-0.02
40.228302,29.009189,35.47,0.08,-0.91,9.46,0.01,-0.01,-0.01
40.228302,29.009189,35.47,-0.06,-1.13,10.39,0.03,0.01,-0.01
40.228302,29.009189,35.47,-0.47,-0.9,9.97,0.01,0.0,-0.02
40.228397,29.009187,39.43,-0.32,-0.71,11.66,0.01,0.0,-0.01
40.228397,29.009187,39.43,-0.27,-1.03,10.0,0.01,0.0,-0.01
40.228397,29.009187,39.43,-0.61,-1.42,11.27,0.03,0.01,-0.0
40.228504,29.009185,42.47,-0.42,-0.49,10.59,0.02,0.01,-0.01
40.228622,29.009189,46.8,-0.47,-1.29,11.34,0.02,0.03,-0.02
40.228622,29.009189,46.8,-0.05,-1.24,12.58,-0.01,0.02,-0.01
40.228622,29.009189,46.8,-0.06,-0.85,10.61,0.01,0.01,-0.01
40.228622,29.009189,46.8,-0.3,-0.67,11.26,0.03,0.02,-0.01
40.228622,29.009189,46.8,-0.3,-0.76,10.75,0.02,-0.02,-0.01
40.22874,29.009191,48.54,0.16,-1.2,10.18,0.02,-0.02,-0.01
40.22874,29.009191,48.54,0.08,-0.62,9.87,0.02,-0.02,0.0
40.22874,29.009191,48.54,-0.01,-0.85,8.79,0.03,-0.01,-0.01
40.22874,29.009191,48.54,-0.53,-1.33,10.92,-0.01,-0.01,-0.02
40.228866,29.009191,51.02,-0.21,-0.99,9.08,0.04,0.02,-0.0
40.228866,29.009191,51.02,-0.24,-0.72,10.01,0.04,0.0,-0.0
40.228866,29.009191,51.02,-0.14,-0.54,10.86,0.04,0.01,-0.01
40.228866,29.009191,51.02,-0.19,-0.81,10.38,0.0,-0.01,-0.01
40.228866,29.009191,51.02,-0.23,-1.46,10.28,-0.0,-0.01,-0.01
40.228866,29.009191,51.02,-0.33,-0.99,9.44,0.01,0.02,-0.01
40.228866,29.009191,51.02,-0.58,-0.65,11.9,-0.01,0.01,-0.01
40.228866,29.009191,51.02,-0.51,-0.5,11.05,-0.01,0.0,-0.0
40.229,29.009193,54.12,-0.43,-0.76,10.0,0.0,0.0,-0.02
40.229,29.009193,54.12,-0.07,-0.64,11.43,0.01,-0.0,-0.0
40.229,29.009193,54.12,-0.39,-0.83,9.81,0.03,-0.0,-0.01
40.229,29.009193,54.12,-0.52,-0.35,11.63,0.03,0.03,-0.01
40.229,29.009193,54.12,0.13,-0.98,9.56,0.02,-0.02,-0.0
40.229,29.009193,54.12,-0.64,-0.95,11.08,0.02,-0.01,-0.01
40.229,29.009193,54.12,-0.46,-0.68,11.29,0.0,-0.02,-0.01
40.229137,29.009193,55.58,0.19,-1.03,8.77,0.01,0.01,-0.0
40.229137,29.009193,55.58,-0.31,-0.69,10.65,0.04,0.0,0.0
40.229282,29.009193,57.43,-0.15,-0.31,10.66,0.03,0.01,-0.01
40.229282,29.009193,57.43,-1.6,-0.09,11.0,0.02,0.04,-0.01
40.229282,29.009193,57.43,0.01,-0.89,10.1,0.01,0.0,-0.01
40.229282,29.009193,57.43,-0.34,-0.83,9.4,0.02,0.01,-0.01
40.229282,29.009193,57.43,-0.04,-0.82,10.16,0.0,-0.01,-0.01
40.229282,29.009193,57.43,-0.12,-0.48,9.73,0.02,-0.02,-0.01
40.229427,29.009195,59.06,-0.13,-0.41,11.51,0.01,-0.02,-0.01
40.229427,29.009195,59.06,-0.52,0.34,9.56,0.0,0.0,-0.01
40.229427,29.009195,59.06,-0.37,-0.29,11.06,0.0,0.01,-0.0
40.229427,29.009195,59.06,-0.55,-0.06,11.29,0.0,-0.01,-0.01
40.229427,29.009195,59.06,-0.71,-0.7,10.43,0.0,0.01,-0.01
40.229427,29.009195,59.06,-0.21,0.11,9.9,0.01,-0.02,-0.01
40.229427,29.009195,59.06,0.11,0.31,10.46,0.02,-0.01,-0.01
40.229427,29.009195,59.06,-0.75,-0.22,10.07,-0.02,-0.0,-0.01
40.229583,29.009197,60.88,-0.37,-0.21,9.04,0.01,-0.0,-0.02
40.229583,29.009197,60.88,-0.19,-0.02,10.67,0.01,0.01,-0.02
40.229583,29.009197,60.88,-0.73,-0.33,10.75,-0.01,0.0,-0.01
40.229583,29.009197,60.88,0.19,0.04,10.35,0.0,-0.0,-0.01
40.229583,29.009197,60.88,-0.31,0.15,8.39,0.01,0.01,-0.01
40.229583,29.009197,60.88,-0.84,0.13,9.76,-0.03,-0.0,-0.01
40.229583,29.009197,60.88,-0.48,0.11,12.74,0.0,0.0,-0.01
40.229732,29.009197,59.84,-0.36,-0.14,9.74,0.02,-0.0,-0.01
40.229732,29.009197,59.84,0.02,0.09,10.55,0.03,0.01,-0.0
40.229732,29.009197,59.84,-0.82,0.09,10.16,-0.02,-0.01,-0.01
40.229881,29.009197,59.26,-0.44,0.32,10.0,0.04,0.0,-0.02
40.229881,29.009197,59.26,-0.3,0.26,9.78,-0.01,-0.03,-0.01
40.229881,29.009197,59.26,-0.02,0.86,10.38,-0.01,-0.02,-0.0
40.229881,29.009197,59.26,-0.57,0.4,10.26,0.0,-0.01,-0.02
40.230026,29.009201,56.67,-0.85,0.64,10.55,0.03,-0.0,-0.0
40.230026,29.009201,56.67,-0.36,0.86,10.48,-0.01,-0.0,-0.01
40.230026,29.009201,56.67,-0.62,0.62,10.0,0.03,0.01,-0.02
40.230026,29.009201,56.67,-0.74,0.38,9.88,-0.0,0.02,-0.01
40.230026,29.009201,56.67,-0.41,0.14,9.75,0.01,0.02,-0.02
40.230167,29.009206,54.62,-0.49,0.7,10.95,-0.02,0.01,-0.02
40.230167,29.009206,54.62,-0.78,0.44,9.76,0.01,0.01,-0.02
40.230167,29.009206,54.62,-0.49,0.43,9.83,0.05,0.02,-0.01
40.230167,29.009206,54.62,-0.25,0.97,9.79,0.01,0.02,-0.01
40.230167,29.009206,54.62,-1.19,1.65,10.24,0.03,0.01,-0.02
40.230167,29.009206,54.62,-1.14,-0.02,10.69,0.0,0.0,-0.01
40.230167,29.009206,54.62,-0.13,0.91,11.0,-0.04,-0.02,-0.01
40.230167,29.009206,54.62,-0.52,0.79,9.07,0.01,-0.02,-0.02
40.230167,29.009206,54.62,-0.36,0.33,11.52,0.02,-0.02,-0.0
40.230293,29.009208,49.47,-0.28,0.5,11.71,-0.0,-0.01,-0.0
40.230293,29.009208,49.47,-0.53,0.67,9.54,0.04,-0.03,-0.0
40.230415,29.009212,47.13,-0.8,0.8,10.36,0.01,-0.0,-0.01
40.230415,29.009212,47.13,-0.51,0.52,8.66,0.01,-0.0,-0.02
40.230415,29.009212,47.13,-0.3,0.62,10.48,0.01,0.01,-0.02
40.230529,29.009218,44.56,-0.77,1.02,9.72,0.03,0.01,-0.01
40.230529,29.009218,44.56,-0.74,0.86,10.32,0.02,0.01,-0.02
40.230529,29.009218,44.56,-0.6,0.65,10.63,0.0,-0.01,-0.03
40.230529,29.009218,44.56,-0.24,1.02,10.31,0.01,-0.02,-0.03
40.230636,29.009227,41.24,-0.7,0.84,10.13,0.02,-0.01,-0.03
40.230636,29.009227,41.24,-0.55,1.13,10.05,-0.0,-0.02,-0.03
40.230636,29.009227,41.24,-0.72,0.68,10.65,0.01,-0.02,-0.03
40.230823,29.009248,33.5,0.25,1.08,9.6,0.02,-0.01,-0.01
40.230823,29.009248,33.5,-0.49,0.95,10.19,0.01,-0.0,0.0
40.231185,29.00914,14.35,1.3,0.11,9.88,0.01,0.0,0.31
40.231189,29.009096,14.06,0.95,0.34,9.92,0.0,-0.01,0.32
40.231189,29.009096,14.06,0.98,0.26,10.0,0.02,0.01,0.3
40.231189,29.009096,14.06,0.68,0.14,9.62,0.02,0.0,0.31
40.231189,29.009096,14.06,0.76,0.01,9.53,0.01,-0.01,0.31
40.231105,29.008983,15.69,1.1,-1.33,10.09,-0.01,0.02,0.23
40.231105,29.008983,15.69,0.9,-1.28,10.59,0.0,0.02,0.2
40.231105,29.008983,15.69,1.03,-1.57,9.45,-0.03,0.02,0.18
40.231105,29.008983,15.69,0.58,-1.21,10.62,-0.03,0.02,0.16
40.231105,29.008983,15.69,0.17,-1.27,10.77,-0.0,0.02,0.15
40.231056,29.008983,20.52,0.21,-0.91,10.16,0.03,0.03,0.09
40.231056,29.008983,20.52,0.01,-1.74,9.72,0.01,0.02,0.05
40.231056,29.008983,20.52,-0.54,-1.27,10.42,-0.02,0.01,-0.0
40.231056,29.008983,20.52,-0.57,-1.28,10.24,0.01,0.02,-0.04
40.230998,29.008987,23.61,-0.45,-0.96,8.7,0.02,-0.02,-0.03
40.230998,29.008987,23.61,-0.4,-0.99,10.25,0.02,0.03,-0.05
40.230998,29.008987,23.61,-0.12,-1.34,9.36,-0.0,0.0,-0.04
40.230998,29.008987,23.61,-0.31,-1.15,8.84,0.04,0.03,-0.05
40.230998,29.008987,23.61,-0.46,-0.87,10.3,0.04,0.02,-0.04
40.230998,29.008987,23.61,-0.86,-1.08,10.81,0.01,0.02,-0.04
40.230998,29.008987,23.61,-0.59,-1.07,9.92,0.03,0.02,-0.04
40.230937,29.008993,27.17,-0.24,-1.05,8.89,0.01,0.02,-0.05
40.230937,29.008993,27.17,-0.76,-1.28,12.12,-0.01,-0.0,-0.05
40.230937,29.008993,27.17,-0.29,-1.34,8.27,0.02,-0.01,-0.05
40.230937,29.008993,27.17,-0.1,-0.77,10.92,0.03,0.0,-0.04
40.230937,29.008993,27.17,-0.4,-1.01,11.9,0.01,0.0,-0.04
40.230937,29.008993,27.17,-0.37,-1.05,10.21,0.02,-0.01,-0.03
40.230937,29.008993,27.17,-0.39,-1.24,11.3,0.02,-0.0,-0.02
40.230937,29.008993,27.17,0.08,-0.9,10.47,0.01,-0.01,-0.04
40.230937,29.008993,27.17,-0.31,-1.01,10.86,0.01,-0.01,-0.02
40.230861,29.008995,30.41,0.35,-0.74,9.23,0.02,0.0,-0.02
40.230861,29.008995,30.41,-0.01,-1.44,9.82,0.02,-0.0,-0.01
40.230861,29.008995,30.41,-0.34,-0.85,9.77,0.02,-0.0,0.0
40.230861,29.008995,30.41,-0.1,-1.24,10.46,0.01,0.01,-0.01
40.230861,29.008995,30.41,0.38,-0.76,10.89,0.0,-0.02,-0.02
40.230781,29.008995,33.35,-0.19,-0.96,10.68,0.0,0.01,-0.01
40.23069,29.008996,36.08,-0.09,-0.79,10.78,0.01,0.01,-0.01
40.230594,29.008998,38.93,-0.08,-1.02,9.66,0.01,0.01,-0.01
40.230594,29.008998,38.93,-0.41,-1.21,10.02,0.01,0.01,-0.02
40.230594,29.008998,38.93,0.4,-0.72,9.98,0.02,-0.02,-0.01
40.230594,29.008998,38.93,-0.68,-1.03,9.86,0.01,-0.01,-0.02
40.230491,29.009,41.71,0.37,-0.86,8.55,0.01,-0.01,-0.01
40.230491,29.009,41.71,0.15,-0.82,10.68,0.02,0.0,-0.01
40.230491,29.009,41.71,-0.16,-1.0,9.72,0.01,-0.0,-0.01
40.230491,29.009,41.71,-0.06,-0.44,9.6,0.03,0.01,-0.01
40.230266,29.009004,46.23,-0.19,-0.14,9.69,0.03,-0.02,-0.0
40.230266,29.009004,46.23,-0.32,0.38,11.5,0.03,-0.02,-0.01
40.230266,29.009004,46.23,0.04,-0.47,9.44,-0.01,-0.01,-0.0
40.230148,29.009004,46.26,-0.18,0.12,10.41,0.04,0.03,0.0
40.230148,29.009004,46.26,-0.16,-0.2,12.28,0.02,0.02,-0.01
40.230033,29.009006,45.84,0.0,-0.08,10.09,0.01,-0.01,-0.01
40.230033,29.009006,45.84,-0.44,0.23,10.21,0.0,-0.01,-0.0
40.230033,29.009006,45.84,-0.39,-0.29,11.03,0.0,0.0,-0.01
40.229919,29.009008,45.0,-0.7,-0.3,10.52,0.01,-0.02,-0.0
40.229919,29.009008,45.0,-0.2,-0.35,10.36,0.02,-0.01,-0.0
40.229919,29.009008,45.0,-0.81,-0.47,11.88,0.03,0.01,-0.01
40.229808,29.00901,44.32,-0.0,-0.24,10.09,0.01,0.0,-0.0
40.229808,29.00901,44.32,-0.05,-0.18,9.89,0.0,0.0,-0.0
40.229808,29.00901,44.32,-0.45,-0.49,9.92,0.01,0.0,-0.0
40.229808,29.00901,44.32,-0.63,0.48,9.99,0.04,0.01,-0.01
40.229808,29.00901,44.32,-0.38,-0.71,9.73,0.01,-0.01,-0.01
40.229808,29.00901,44.32,-0.24,0.02,9.53,0.03,0.0,-0.01
40.229698,29.009012,44.28,0.0,-0.4,11.08,0.01,-0.01,-0.01
40.229698,29.009012,44.28,0.03,-0.55,10.45,0.03,0.0,-0.0
40.229587,29.009014,44.1,-0.14,-0.21,9.01,0.01,0.03,-0.01
40.229587,29.009014,44.1,-0.08,-0.4,9.74,-0.01,0.01,-0.01
40.229587,29.009014,44.1,-0.57,-0.4,9.97,-0.01,0.03,-0.02
40.229587,29.009014,44.1,-0.37,-0.37,10.1,0.0,0.01,-0.01
40.229476,29.009016,44.21,-0.57,-0.01,8.94,0.03,-0.0,-0.01
40.229366,29.009017,43.87,-0.27,-0.43,9.6,0.01,-0.01,-0.02
40.229366,29.009017,43.87,0.32,-0.34,9.95,0.03,-0.01,-0.01
40.229366,29.009017,43.87,-0.2,0.12,10.45,0.02,0.0,-0.0
40.229366,29.009017,43.87,-0.39,-0.88,9.87,0.02,-0.0,-0.01
40.229255,29.009019,44.15,-0.39,-0.38,10.07,0.02,0.01,-0.01
40.229255,29.009019,44.15,-0.13,-0.59,10.36,0.01,-0.01,-0.01
40.229255,29.009019,44.15,-0.34,-0.35,10.83,0.02,-0.0,-0.01
40.229255,29.009019,44.15,-0.3,-0.63,8.54,0.01,-0.0,-0.01
40.229255,29.009019,44.15,-0.28,-0.41,10.21,0.0,-0.0,-0.01
40.229145,29.009019,44.15,-0.14,-0.32,11.33,0.01,0.0,-0.0
40.22903,29.009019,45.43,0.09,-0.55,9.45,0.03,-0.01,-0.0
40.22903,29.009019,45.43,-0.48,0.25,9.25,0.02,-0.0,-0.01
40.22903,29.009019,45.43,-0.64,0.18,10.27,0.01,0.01,-0.01
40.22903,29.009019,45.43,0.02,0.13,10.1,-0.01,-0.01,-0.02
40.22903,29.009019,45.43,-0.74,-0.12,10.14,0.01,-0.01,-0.01
40.22903,29.009019,45.43,-0.25,0.21,8.89,0.0,-0.0,-0.01
40.228916,29.009019,46.93,-0.49,1.01,6.07,0.03,0.04,0.01
40.228916,29.009019,46.93,-0.63,1.2,8.37,0.04,0.03,-0.0
40.228916,29.009019,46.93,-0.56,2.07,10.62,-0.01,-0.01,-0.01
40.228916,29.009019,46.93,-0.55,1.29,8.72,0.0,0.0,-0.0
40.228916,29.009019,46.93,0.48,1.18,11.85,-0.03,-0.0,-0.02
40.228916,29.009019,46.93,-0.67,1.65,11.89,0.03,0.0,-0.03
40.228916,29.009019,46.93,-0.15,2.71,10.94,0.01,-0.0,-0.0
40.228916,29.009019,46.93,-0.19,1.86,8.86,-0.0,-0.01,-0.0
40.228916,29.009019,46.93,-0.92,1.24,8.47,0.0,0.01,-0.01
40.228916,29.009019,46.93,0.0,2.07,12.47,-0.01,-0.01,-0.01
40.228916,29.009019,46.93,-0.61,1.87,9.28,0.0,-0.03,-0.01
40.228916,29.009019,46.93,-0.32,2.38,12.27,-0.05,-0.01,-0.01
40.228916,29.009019,46.93,0.55,1.9,8.81,-0.01,0.01,-0.03
40.228916,29.009019,46.93,-0.9,1.72,7.76,-0.01,0.01,0.01
40.228916,29.009019,46.93,-1.21,4.14,6.38,0.03,-0.08,0.06
40.228916,29.009019,46.93,0.06,3.51,9.95,-0.02,-0.03,-0.01
40.228916,29.009019,46.93,-0.1,1.92,8.37,0.02,0.0,-0.01
40.228916,29.009019,46.93,-1.47,2.49,9.58,-0.02,-0.0,-0.0
40.228916,29.009019,46.93,-0.73,1.5,9.84,0.03,0.0,0.0
40.228721,29.009019,31.76,-0.07,2.06,11.33,0.02,-0.01,-0.01
40.228721,29.009019,31.76,-1.17,2.1,11.32,0.03,-0.0,-0.02
40.228721,29.009019,31.76,-0.02,1.66,7.87,0.01,0.01,-0.01
40.228721,29.009019,31.76,-0.55,1.58,9.44,0.02,0.0,-0.02
40.228721,29.009019,31.76,-0.77,2.4,10.37,0.01,-0.01,0.0
40.228721,29.009019,31.76,-1.01,3.15,11.9,-0.02,0.02,-0.04
40.228721,29.009019,31.76,-0.54,3.16,9.63,0.02,0.0,-0.01
40.228721,29.009019,31.76,-0.83,2.52,9.9,0.0,0.01,-0.0
40.228721,29.009019,31.76,-0.37,1.79,9.76,0.0,-0.01,-0.01
40.228721,29.009019,31.76,-0.37,2.02,9.87,-0.01,-0.01,-0.02
40.228656,29.009019,23.32,-0.64,1.76,10.27,0.02,-0.0,-0.0
40.228656,29.009019,23.32,-0.89,1.4,10.78,0.03,0.01,-0.01
40.228656,29.009019,23.32,-1.06,1.33,9.99,0.0,-0.0,-0.0
40.228656,29.009019,23.32,-0.68,1.79,10.05,-0.01,-0.0,-0.01
40.22861,29.009019,15.91,-0.47,0.11,10.34,0.0,0.0,-0.0
40.22858,29.009019,11.61,-0.42,0.12,10.26,0.01,0.0,-0.01
40.228527,29.009017,10.19,-0.62,-0.43,10.65,0.02,0.01,0.0
40.228527,29.009017,10.19,0.24,-0.65,9.97,-0.01,-0.02,-0.01
40.228527,29.009017,10.19,-0.26,-0.61,10.36,0.01,0.01,-0.01
40.2285,29.009017,9.82,-0.39,-1.06,10.75,0.02,-0.0,-0.0
40.2285,29.009017,9.82,-0.08,-1.56,10.29,0.03,-0.0,-0.0
40.2285,29.009017,9.82,-0.37,-1.49,9.57,0.02,0.01,-0.01
40.2285,29.009017,9.82,-0.22,-2.0,8.02,-0.01,0.01,-0.0
40.2285,29.009017,9.82,-0.54,-1.79,9.74,0.02,-0.01,-0.01
40.228431,29.009017,17.28,-0.39,-1.1,9.45,-0.01,-0.01,-0.01
40.228378,29.009019,21.11,0.88,-0.3,9.99,-0.01,-0.01,0.01
40.228378,29.009019,21.11,-1.27,-1.8,11.39,0.05,0.01,-0.02
40.228378,29.009019,21.11,0.11,-1.11,10.72,-0.02,-0.0,-0.01
40.228378,29.009019,21.11,-0.21,-0.81,11.24,-0.01,0.01,-0.01
40.228378,29.009019,21.11,-1.07,-0.8,10.0,0.01,0.0,-0.01
40.228378,29.009019,21.11,-0.38,-0.85,9.44,0.02,0.0,-0.01
40.228378,29.009019,21.11,-0.78,-0.58,8.59,0.01,0.01,-0.02
40.228378,29.009019,21.11,0.29,-0.57,10.41,-0.01,0.0,-0.02
40.228378,29.009019,21.11,-0.59,-0.6,9.07,0.02,0.01,-0.01
40.228378,29.009019,21.11,-0.34,-0.91,7.56,0.02,-0.01,-0.01
40.228378,29.009019,21.11,-0.76,-0.39,10.52,-0.02,0.0,-0.0
40.228263,29.009019,24.82,1.11,0.22,8.74,0.0,-0.03,-0.01
40.228263,29.009019,24.82,-0.26,-1.37,9.72,0.02,-0.02,-0.02
40.228263,29.009019,24.82,0.21,0.0,9.76,0.01,-0.0,-0.02
40.228202,29.009019,24.43,0.15,-0.44,9.45,0.0,0.0,-0.02
40.228202,29.009019,24.43,-0.2,-0.17,10.16,0.02,0.0,-0.01
40.228141,29.009019,23.91,-0.05,0.13,10.24,0.04,0.01,-0.01
40.228141,29.009019,23.91,-0.06,0.12,10.7,0.0,0.02,-0.01
40.228141,29.009019,23.91,-0.04,0.23,10.54,0.02,0.01,-0.01
40.228141,29.009019,23.91,-0.42,-0.26,9.63,0.01,-0.01,-0.01
40.228141,29.009019,23.91,1.09,0.15,10.44,-0.02,-0.03,-0.01
40.228141,29.009019,23.91,-1.16,0.02,11.67,0.02,-0.02,-0.01
40.22808,29.009019,23.15,-0.77,0.22,10.13,0.01,0.03,-0.01
40.22808,29.009019,23.15,-0.41,0.58,9.35,0.02,0.0,-0.01
40.22808,29.009019,23.15,-0.27,0.19,10.33,-0.0,-0.01,-0.01
40.22808,29.009019,23.15,-0.56,0.25,10.47,0.02,-0.02,-0.01
40.22789,29.009235,15.96,1.47,-0.82,11.06,-0.02,0.04,0.29
40.22789,29.009235,15.96,0.99,-0.68,10.45,-0.01,0.04,0.27
40.22789,29.009235,15.96,1.1,-0.6,10.59,-0.02,0.02,0.23
40.22789,29.009235,15.96,0.49,-1.06,10.25,-0.02,0.02,0.22
40.22789,29.009235,15.96,-0.11,-0.84,10.71,-0.0,-0.0,0.16
40.227935,29.009239,18.35,0.28,-1.0,9.99,0.01,0.02,0.13
40.227935,29.009239,18.35,0.4,-1.05,10.06,0.0,0.02,0.11
40.227935,29.009239,18.35,-0.28,-0.96,9.77,0.01,0.02,0.07
40.227935,29.009239,18.35,-0.26,-0.89,10.54,-0.01,0.03,0.05
40.227935,29.009239,18.35,-0.57,-1.07,9.92,0.02,0.04,0.03
40.227935,29.009239,18.35,-0.4,-1.14,10.06,-0.0,0.02,0.01
40.227935,29.009239,18.35,-0.44,-0.88,10.18,0.03,0.03,0.0
40.227935,29.009239,18.35,-0.95,-0.89,10.1,-0.0,0.02,-0.01
40.227985,29.009237,19.63,-0.06,-0.98,10.35,-0.01,-0.02,-0.04
40.228046,29.009229,25.06,-0.23,-0.94,10.76,0.02,-0.01,-0.04
40.228111,29.009227,25.43,-0.16,-1.27,9.9,0.0,-0.02,-0.04
40.228111,29.009227,25.43,0.09,-0.7,8.75,0.0,-0.01,-0.04
40.228111,29.009227,25.43,-0.14,-0.72,10.8,0.02,0.01,-0.03
40.228111,29.009227,25.43,-0.53,-1.27,9.12,0.02,0.01,-0.04
40.228111,29.009227,25.43,-0.31,-0.68,11.12,-0.0,0.01,-0.04
40.228111,29.009227,25.43,0.11,-0.69,10.62,0.02,0.01,-0.04
40.228179,29.009223,27.58,-0.29,-1.09,8.97,0.02,-0.02,-0.04
40.228179,29.009223,27.58,-0.66,-1.3,9.14,0.0,0.0,-0.03
40.228179,29.009223,27.58,-0.47,-0.53,11.37,0.01,0.01,-0.03
40.228179,29.009223,27.58,0.02,-1.09,10.34,0.0,-0.02,-0.03
40.228179,29.009223,27.58,-0.57,-0.63,10.41,0.02,-0.02,-0.03
40.228179,29.009223,27.58,0.04,-1.23,10.13,0.02,-0.01,-0.04
40.228256,29.009225,30.61,0.14,-0.74,9.45,-0.01,-0.03,-0.03
40.228256,29.009225,30.61,-0.39,-1.02,9.08,0.01,0.01,-0.01
40.228256,29.009225,30.61,-0.31,-0.71,10.63,0.01,0.01,-0.02
40.228336,29.009229,33.04,-0.29,-0.65,11.34,0.01,0.01,-0.01
40.228336,29.009229,33.04,0.45,-0.66,9.69,0.0,-0.0,-0.01
40.22842,29.009231,34.11,0.17,-0.79,8.68,0.0,-0.01,0.0
40.22842,29.009231,34.11,-0.17,-0.82,10.75,-0.01,0.0,-0.01
40.22842,29.009231,34.11,0.97,-0.57,11.11,0.01,-0.01,0.0
40.228511,29.009235,36.6,-0.08,-0.55,11.03,-0.01,-0.0,0.0
40.228511,29.009235,36.6,0.15,-0.9,9.93,0.02,-0.0,-0.0
40.22861,29.009237,38.73,-0.37,-0.57,10.55,0.01,0.01,0.0
40.22861,29.009237,38.73,-0.74,-0.8,10.46,0.0,0.01,-0.01
40.22861,29.009237,38.73,-0.38,-0.82,10.78,0.0,0.01,-0.01
40.22861,29.009237,38.73,-0.33,-0.57,9.69,-0.0,0.01,0.01
40.22861,29.009237,38.73,-0.57,-0.51,9.79,0.02,0.01,-0.0
40.22861,29.009237,38.73,0.1,-0.6,10.51,0.0,-0.01,-0.0
40.228713,29.009239,40.93,0.03,-0.62,9.53,-0.0,0.0,-0.01
40.228816,29.009241,41.02,-0.43,-0.23,10.17,0.02,0.01,-0.0
40.228816,29.009241,41.02,-0.05,-0.01,11.03,-0.01,-0.01,-0.02
40.228816,29.009241,41.02,0.01,-0.19,9.42,0.01,0.01,-0.01
40.228816,29.009241,41.02,-0.47,-0.02,10.41,0.03,0.01,-0.01
40.228919,29.009241,39.69,-0.7,-0.35,9.5,0.0,-0.02,-0.02
40.229019,29.009243,40.48,0.41,-0.21,10.04,-0.02,-0.02,-0.01
40.229019,29.009243,40.48,-0.17,-0.44,10.64,0.01,-0.0,-0.01
40.229019,29.009243,40.48,-0.31,0.01,10.22,0.05,0.01,0.0
40.229019,29.009243,40.48,-0.26,-0.53,9.64,0.01,0.0,-0.01
40.229019,29.009243,40.48,0.12,-0.21,9.81,0.01,-0.0,-0.0
40.229019,29.009243,40.48,-0.33,-0.34,9.72,0.0,-0.01,-0.01
40.229019,29.009243,40.48,-0.39,-0.36,10.93,0.01,-0.01,-0.01
40.229125,29.009244,40.67,0.2,-0.27,10.3,0.01,-0.01,-0.01
40.229125,29.009244,40.67,-0.61,-0.23,10.09,0.01,0.0,-0.01
40.229228,29.009246,40.23,-0.08,-0.04,10.62,0.01,0.0,-0.01
40.229228,29.009246,40.23,-0.41,-0.13,9.64,0.02,-0.02,-0.02
40.229228,29.009246,40.23,0.15,-0.22,9.52,0.02,-0.01,-0.01
40.229331,29.009248,40.54,-0.19,-0.09,10.04,0.0,-0.01,-0.01
40.229331,29.009248,40.54,-0.42,-0.16,9.77,0.0,-0.01,-0.01
40.229331,29.009248,40.54,-0.06,0.03,10.03,0.02,-0.01,-0.0
40.229434,29.009252,40.76,-0.03,-0.07,9.91,-0.0,0.0,-0.0
40.229434,29.009252,40.76,-0.58,-0.24,10.17,0.02,0.01,-0.01
40.229434,29.009252,40.76,-0.18,-0.4,10.86,0.01,-0.0,-0.01
40.229434,29.009252,40.76,-0.8,-0.52,9.86,0.02,0.01,-0.01
40.229434,29.009252,40.76,-0.51,0.17,9.39,0.02,-0.01,-0.01
40.229537,29.009252,40.86,0.27,-0.02,10.77,-0.01,-0.02,-0.02
40.229537,29.009252,40.86,-0.08,-0.38,10.02,0.01,-0.01,-0.01
40.229637,29.009254,40.06,0.07,0.08,9.65,0.03,-0.01,-0.0
40.229637,29.009254,40.06,-0.5,-0.26,10.05,0.01,0.0,-0.01
40.229637,29.009254,40.06,-1.01,-0.62,10.18,-0.02,0.0,-0.01
40.229736,29.009254,38.85,0.29,-0.02,9.55,0.0,0.01,-0.01
40.229736,29.009254,38.85,-0.8,0.33,10.01,0.02,0.01,-0.01
40.229736,29.009254,38.85,-0.52,0.25,9.67,-0.02,0.0,-0.01
40.229736,29.009254,38.85,-0.4,-0.12,10.78,0.03,0.01,-0.0
40.229736,29.009254,38.85,-0.32,0.15,11.22,-0.0,-0.01,-0.01
40.229835,29.009256,39.56,-0.94,-0.1,8.72,0.03,-0.01,-0.01
40.229835,29.009256,39.56,0.65,0.25,10.25,-0.02,-0.03,-0.0
40.229835,29.009256,39.56,-0.11,-0.15,10.53,-0.0,-0.01,-0.0
40.229835,29.009256,39.56,-0.55,0.01,10.89,-0.01,-0.01,-0.02
40.229835,29.009256,39.56,-0.12,0.27,10.23,0.02,-0.01,-0.0
40.229835,29.009256,39.56,-0.19,-0.22,9.96,0.0,0.0,-0.01
40.229835,29.009256,39.56,-0.76,0.01,9.91,0.03,0.0,-0.0
40.229835,29.009256,39.56,-0.26,-0.11,10.72,0.0,0.0,-0.01
40.229934,29.009258,39.02,-0.33,0.17,9.31,0.02,-0.0,-0.01
40.229934,29.009258,39.02,-0.24,-0.22,9.67,-0.01,-0.01,-0.02
40.229934,29.009258,39.02,-0.74,0.11,9.36,-0.0,0.01,-0.01
40.229934,29.009258,39.02,-0.87,0.59,10.85,0.02,0.02,-0.01
40.229934,29.009258,39.02,-0.79,0.01,11.33,-0.02,-0.01,-0.0
40.229934,29.009258,39.02,0.0,-0.06,10.65,0.02,-0.01,-0.01
40.229934,29.009258,39.02,-0.86,0.11,10.57,0.02,-0.01,-0.01
40.23003,29.00926,38.35,-0.32,0.06,10.05,0.01,0.0,-0.01
40.23003,29.00926,38.35,-0.31,0.01,9.27,0.02,-0.01,-0.02
40.230125,29.009262,37.45,-0.77,-0.23,10.48,0.0,0.0,-0.01
40.230125,29.009262,37.45,-0.18,-0.06,10.31,0.01,0.0,-0.01
40.230125,29.009262,37.45,0.23,0.24,9.67,-0.01,0.01,-0.01
40.230125,29.009262,37.45,-0.24,-0.19,8.67,0.02,0.01,-0.01
40.230125,29.009262,37.45,0.24,0.26,9.96,0.01,-0.01,-0.01
40.230125,29.009262,37.45,-0.92,0.0,10.31,0.02,0.01,-0.01
40.230125,29.009262,37.45,-0.58,-0.06,9.53,-0.0,0.01,-0.01
40.230125,29.009262,37.45,-0.23,0.02,10.64,0.02,0.01,-0.02
40.230125,29.009262,37.45,-0.53,-0.03,10.1,-0.01,0.04,-0.01
40.23022,29.009263,36.67,-0.9,0.07,11.19,0.0,0.01,-0.01
40.23022,29.009263,36.67,-1.03,-0.19,10.22,0.01,0.03,-0.02
40.23022,29.009263,36.67,-0.25,-0.07,10.57,0.01,0.01,-0.01
40.23022,29.009263,36.67,-0.33,-0.34,10.15,0.0,-0.0,-0.0
40.23022,29.009263,36.67,-0.17,0.48,10.63,0.05,-0.01,-0.01
40.230308,29.009265,35.98,-0.21,0.21,8.76,-0.0,-0.01,-0.01
40.230308,29.009265,35.98,-0.57,-0.04,10.3,0.01,-0.02,-0.01
40.230308,29.009265,35.98,-0.24,-0.19,9.43,0.03,-0.01,-0.0
40.2304,29.009267,35.34,-0.24,0.27,10.04,0.01,-0.02,-0.01
40.230484,29.009271,34.1,-0.55,-0.21,10.32,0.02,0.01,-0.01
40.230567,29.009273,32.26,0.19,0.31,11.57,0.0,-0.02,-0.01
40.230567,29.009273,32.26,-0.68,0.17,8.29,0.0,-0.01,-0.02
40.230648,29.009279,30.32,0.28,0.45,9.33,0.02,0.0,-0.02
40.230648,29.009279,30.32,-0.37,0.71,10.42,-0.01,-0.0,-0.03
40.23106,29.009229,15.8,1.44,0.26,9.88,-0.01,0.0,0.33
40.231067,29.009187,12.89,0.98,0.01,9.84,-0.01,0.0,0.33
40.231067,29.009187,12.89,0.88,-0.2,9.93,-0.0,-0.01,0.32
40.23104,29.009057,14.76,1.77,-0.62,9.86,-0.01,0.02,0.36
40.23104,29.009057,14.76,1.45,-0.75,9.95,0.02,-0.01,0.33
40.23104,29.009057,14.76,1.19,-0.85,10.12,0.01,-0.02,0.32
40.231002,29.009031,18.41,1.28,-1.12,10.33,0.01,0.02,0.24
40.230949,29.009017,21.37,1.07,-1.36,9.37,0.03,0.0,0.16
40.230949,29.009017,21.37,0.69,-1.4,11.04,0.01,-0.01,0.13
40.230949,29.009017,21.37,0.42,-1.48,10.52,0.01,-0.0,0.12
40.230949,29.009017,21.37,0.76,-1.34,9.62,-0.01,0.02,0.08
40.230949,29.009017,21.37,0.08,-1.19,9.96,0.04,0.05,0.09
40.230949,29.009017,21.37,0.01,-1.57,10.82,0.02,0.03,0.07
40.230892,29.00901,24.63,-0.1,-1.68,10.11,-0.02,0.03,0.05
40.230892,29.00901,24.63,-0.81,-1.41,11.58,0.02,0.04,0.02
40.230892,29.00901,24.63,0.15,-1.51,8.03,0.01,0.04,0.01
40.230892,29.00901,24.63,-0.5,-1.8,9.08,0.0,0.01,0.0
40.230892,29.00901,24.63,-0.1,-0.86,10.64,0.0,0.03,-0.01
40.230892,29.00901,24.63,-0.24,-1.65,10.24,-0.01,-0.02,-0.01
40.230892,29.00901,24.63,-0.0,-1.77,8.38,0.01,0.0,-0.0
40.230892,29.00901,24.63,-0.34,-1.46,9.1,0.03,-0.0,-0.01
40.230892,29.00901,24.63,-0.52,-1.34,9.72,0.04,0.01,0.0
40.230892,29.00901,24.63,-0.15,-1.78,10.02,0.02,0.01,-0.01
40.230827,29.00901,27.02,0.4,-0.98,11.12,0.01,0.0,-0.03
40.230827,29.00901,27.02,0.0,-0.9,11.8,0.01,-0.01,-0.03
40.230827,29.00901,27.02,0.28,-1.29,9.07,0.02,-0.0,-0.02
40.230827,29.00901,27.02,-0.41,-1.35,9.25,0.02,0.01,-0.02
40.230827,29.00901,27.02,0.48,-1.25,10.18,0.02,-0.02,-0.0
40.230751,29.00901,32.19,-0.31,-0.69,10.45,0.0,-0.01,-0.01
40.230751,29.00901,32.19,-0.34,-0.94,10.67,0.01,-0.01,-0.0
40.230751,29.00901,32.19,-0.08,-0.96,10.05,0.02,0.0,-0.0
40.230663,29.009006,36.5,0.08,-0.75,9.5,-0.01,0.01,0.02
40.230571,29.009006,37.82,0.6,-0.59,10.08,0.03,-0.01,0.02
40.230571,29.009006,37.82,0.28,-0.72,10.73,0.01,-0.0,0.02
40.230571,29.009006,37.82,-0.29,-0.93,10.86,0.01,0.01,0.01
40.230571,29.009006,37.82,-0.39,-0.61,10.38,0.02,0.01,0.0
40.230571,29.009006,37.82,-0.02,-0.91,9.72,-0.01,0.0,0.01
40.230571,29.009006,37.82,0.63,-1.07,10.89,0.02,0.01,0.0
40.230571,29.009006,37.82,-0.69,-1.16,12.15,0.01,0.02,-0.01
40.230571,29.009006,37.82,-0.11,-0.8,10.39,-0.0,-0.0,-0.0
40.230476,29.009008,39.34,0.6,-0.91,9.46,-0.01,-0.0,-0.01
40.230476,29.009008,39.34,0.03,-0.65,10.41,0.01,0.01,-0.01
40.230476,29.009008,39.34,-0.31,-0.43,10.74,0.0,0.02,-0.0
40.230476,29.009008,39.34,-0.08,-0.58,10.39,0.03,0.01,-0.0
40.230476,29.009008,39.34,-0.32,-0.43,9.73,-0.0,-0.01,-0.01
40.230373,29.00901,41.3,0.33,-0.61,9.31,0.01,-0.01,-0.01
40.230373,29.00901,41.3,-0.92,-0.49,10.69,0.02,0.0,-0.01
40.230373,29.00901,41.3,-0.11,-1.01,9.83,0.01,-0.0,-0.02
40.230266,29.009012,42.91,-0.49,-0.57,11.21,0.02,-0.01,-0.01
40.230266,29.009012,42.91,-0.62,-0.99,9.6,0.03,-0.01,-0.01
40.230266,29.009012,42.91,-0.51,-0.33,10.51,0.02,-0.01,-0.01
40.230266,29.009012,42.91,-0.57,-0.39,10.55,0.0,-0.02,-0.01
40.230266,29.009012,42.91,-0.59,-0.78,9.26,0.03,-0.0,-0.02
40.230159,29.009012,44.43,-0.3,-0.51,9.33,0.01,0.02,-0.02
40.230045,29.009012,45.3,-0.05,-0.32,10.09,0.02,-0.01,-0.01
40.22993,29.009012,45.36,-0.06,-0.33,10.22,0.01,-0.01,-0.0
40.22993,29.009012,45.36,-0.94,-0.83,9.82,0.04,0.01,-0.0
40.22993,29.009012,45.36,-0.28,-0.49,11.26,-0.0,-0.01,-0.02
40.22993,29.009012,45.36,-0.04,-0.58,9.72,-0.03,-0.0,-0.02
40.22993,29.009012,45.36,-0.09,-0.29,9.63,-0.01,0.02,-0.01
40.229816,29.009016,46.21,-0.05,-0.54,9.89,0.04,0.01,-0.01
40.229816,29.009016,46.21,-0.42,-0.55,9.44,0.01,-0.01,-0.0
40.229816,29.009016,46.21,-0.14,-0.19,9.5,0.02,-0.01,-0.01
40.229701,29.009016,46.93,-0.32,-0.58,9.56,0.01,0.0,-0.01
40.229583,29.009017,46.93,-0.46,-0.12,11.17,0.03,-0.01,-0.0
40.229583,29.009017,46.93,0.0,-0.26,10.45,0.02,-0.03,-0.01
40.229465,29.009019,47.91,-0.08,-0.27,9.82,0.01,-0.02,-0.01
40.229465,29.009019,47.91,-0.64,0.34,11.15,0.03,-0.0,-0.01
40.229465,29.009019,47.91,-0.04,-0.1,11.17,-0.02,0.01,0.01
40.229343,29.009019,48.47,-0.85,0.15,10.71,0.0,0.03,0.0
40.229343,29.009019,48.47,-0.18,-0.06,9.96,-0.01,0.0,-0.01
40.229343,29.009019,48.47,-0.6,0.23,9.42,0.02,-0.0,-0.01
40.229343,29.009019,48.47,-1.12,-0.05,11.65,0.01,0.01,-0.01
40.229225,29.009023,46.86,-0.32,-0.1,9.88,0.03,-0.0,-0.02
40.22911,29.009027,45.54,-0.23,0.52,10.59,0.02,0.01,-0.01
40.22911,29.009027,45.54,0.17,-0.37,9.39,0.03,0.01,-0.01
40.22911,29.009027,45.54,0.06,-0.2,10.75,0.02,-0.0,-0.01
40.22911,29.009027,45.54,0.02,0.07,10.64,0.01,-0.01,-0.0
40.22911,29.009027,45.54,-0.35,0.03,9.02,0.01,-0.02,-0.0
40.22911,29.009027,45.54,-0.72,0.45,11.69,-0.01,-0.0,-0.02
40.22911,29.009027,45.54,-0.11,0.55,10.68,0.01,-0.0,0.0
40.22911,29.009027,45.54,-1.31,0.13,10.19,0.03,0.01,0.0
40.22911,29.009027,45.54,-0.11,1.22,7.68,0.02,-0.0,-0.0
40.22911,29.009027,45.54,-0.21,2.14,9.82,0.03,0.02,-0.01
40.22911,29.009027,45.54,-0.13,0.72,8.55,-0.0,0.02,-0.02
40.22911,29.009027,45.54,-0.51,1.36,10.51,0.02,0.01,-0.01
40.22911,29.009027,45.54,-0.15,1.35,10.68,0.02,0.01,-0.01
40.22911,29.009027,45.54,-0.95,1.4,9.86,-0.03,-0.01,-0.01
40.22911,29.009027,45.54,-0.56,2.31,12.78,-0.04,-0.0,-0.02
40.228885,29.009029,42.97,-0.34,1.28,10.36,-0.0,-0.03,-0.0
40.228885,29.009029,42.97,-0.47,1.19,8.5,0.03,-0.01,-0.02
40.228885,29.009029,42.97,-1.25,3.97,10.07,0.05,0.03,0.02
40.228885,29.009029,42.97,-0.62,1.64,8.05,0.01,-0.0,-0.01
40.228885,29.009029,42.97,-0.89,3.73,13.78,0.02,0.0,-0.01
40.228885,29.009029,42.97,-1.17,2.87,12.6,0.01,-0.01,-0.02
40.228885,29.009029,42.97,-1.25,3.11,11.23,-0.02,0.01,-0.07
40.228885,29.009029,42.97,-0.53,3.47,12.71,-0.02,0.03,0.0
40.228885,29.009029,42.97,0.96,0.71,11.87,0.06,0.02,-0.01
40.228885,29.009029,42.97,-1.21,1.72,10.59,-0.0,0.01,-0.01
40.228885,29.009029,42.97,-1.39,2.21,10.27,0.05,0.01,0.02
40.228885,29.009029,42.97,-0.53,0.7,6.97,0.04,-0.05,-0.01
40.228885,29.009029,42.97,-0.29,1.45,9.38,0.01,0.0,-0.01
40.228885,29.009029,42.97,-0.44,1.47,10.2,0.01,-0.01,0.0
40.228885,29.009029,42.97,-0.88,1.83,12.45,0.0,0.0,-0.02
40.228706,29.009027,28.5,-0.11,1.65,10.92,0.02,-0.01,-0.01
40.228706,29.009027,28.5,-0.7,1.59,11.38,0.01,-0.0,-0.01
40.228706,29.009027,28.5,-1.06,2.43,11.19,0.01,0.02,-0.0
40.228706,29.009027,28.5,-0.05,2.09,9.88,0.01,-0.01,-0.01
40.228706,29.009027,28.5,-0.32,1.42,10.11,0.0,-0.0,-0.01
40.228599,29.009023,15.08,-0.16,1.65,10.18,0.01,-0.0,-0.01
40.228599,29.009023,15.08,-0.68,1.7,9.85,0.03,0.02,-0.0
40.228599,29.009023,15.08,-0.19,1.01,10.17,-0.0,-0.0,-0.01
40.228599,29.009023,15.08,-0.34,0.8,9.98,0.01,0.01,-0.01
40.228572,29.009021,8.09,-0.4,-0.0,9.8,0.01,-0.0,0.0
40.228572,29.009021,8.09,-0.17,0.02,10.36,0.01,0.0,-0.01
40.228553,29.009019,6.67,-0.48,-1.43,10.47,0.02,0.0,-0.01
40.228538,29.009019,6.04,-0.27,-1.24,10.02,0.01,-0.01,-0.01
40.228538,29.009019,6.04,-0.07,-1.01,9.79,0.01,-0.01,-0.01
40.228515,29.009019,8.59,-0.02,-1.48,10.34,-0.0,0.01,-0.0
40.228408,29.009019,18.45,0.89,-0.6,9.55,0.02,-0.01,-0.02
40.228408,29.009019,18.45,-0.22,-1.12,10.38,0.0,-0.0,-0.01
40.228408,29.009019,18.45,-0.28,-0.75,10.42,-0.01,0.0,-0.02
40.228408,29.009019,18.45,-0.72,-0.99,10.25,0.0,0.02,-0.01
40.228359,29.009019,19.83,-0.29,-0.96,11.08,0.01,0.01,-0.01
40.228305,29.009019,21.24,0.06,-0.81,9.68,0.0,0.0,-0.01
40.228305,29.009019,21.24,-0.24,-0.25,9.95,-0.0,-0.02,-0.02
40.228305,29.009019,21.24,0.06,-0.19,11.48,0.0,-0.02,-0.0
40.228305,29.009019,21.24,-0.81,0.49,11.43,0.03,-0.01,-0.01
40.228305,29.009019,21.24,-0.79,-1.27,10.65,0.0,-0.02,-0.01
40.228305,29.009019,21.24,-0.57,-0.44,10.83,-0.01,0.0,-0.01
40.228195,29.009019,21.96,-0.38,0.04,9.86,0.02,0.02,-0.04
40.228141,29.009017,20.85,-0.96,0.03,9.92,0.02,0.03,-0.06
40.228141,29.009017,20.85,-0.4,0.11,10.94,0.03,-0.0,-0.06
40.228141,29.009017,20.85,-1.75,-0.49,10.69,0.01,0.01,-0.05
40.228092,29.009016,19.5,-1.03,-1.01,9.87,0.01,-0.01,-0.05
40.228092,29.009016,19.5,-0.75,-0.21,10.1,-0.0,-0.02,-0.05
40.227874,29.009239,15.2,1.13,-1.5,10.42,0.01,0.01,0.22
40.227874,29.009239,15.2,1.14,-1.44,10.02,-0.02,0.04,0.17
40.227874,29.009239,15.2,1.35,-1.43,9.99,0.0,0.04,0.15
40.227928,29.009241,23.5,0.73,-1.89,10.59,0.0,0.06,0.11
40.227928,29.009241,23.5,-0.26,-1.76,10.6,0.01,0.08,0.09
40.227928,29.009241,23.5,-0.3,-1.23,9.58,0.02,0.07,0.06
40.227928,29.009241,23.5,-0.18,-1.49,8.89,0.0,0.05,0.03
40.227928,29.009241,23.5,-0.59,-1.26,9.93,0.03,0.06,-0.01
40.227928,29.009241,23.5,-0.29,-1.83,10.28,-0.0,-0.01,-0.03
40.227928,29.009241,23.5,-0.13,-1.27,10.04,0.03,0.02,-0.02
40.227928,29.009241,23.5,0.18,-1.79,8.26,0.0,-0.01,-0.03
40.227928,29.009241,23.5,-0.34,-1.05,11.62,0.01,-0.0,-0.03
40.227928,29.009241,23.5,-0.3,-1.53,10.66,0.05,0.01,-0.02
40.227928,29.009241,23.5,-0.34,-1.46,9.56,0.03,-0.02,-0.02
40.227928,29.009241,23.5,-0.16,-1.4,8.18,0.02,-0.02,-0.03
40.227928,29.009241,23.5,-0.31,-1.51,10.02,0.02,-0.01,-0.02
40.227928,29.009241,23.5,-0.27,-1.19,11.1,0.01,-0.0,-0.02
40.227928,29.009241,23.5,-0.33,-1.01,11.23,-0.01,-0.01,-0.03
40.227928,29.009241,23.5,-0.01,-1.14,10.99,-0.0,-0.0,-0.02
40.227928,29.009241,23.5,-0.49,-1.35,9.3,0.0,0.01,-0.02
40.228073,29.009237,31.37,0.06,-1.36,11.51,-0.01,-0.0,-0.0
40.228073,29.009237,31.37,0.08,-0.88,10.36,0.04,-0.0,-0.0
40.228073,29.009237,31.37,-0.73,-1.66,9.75,0.0,-0.0,-0.01
40.228073,29.009237,31.37,-0.26,-1.27,10.79,0.02,0.01,-0.01
40.228073,29.009237,31.37,0.13,-1.22,11.02,0.01,0.01,-0.02
40.228073,29.009237,31.37,-0.57,-1.04,10.64,0.02,0.01,-0.0
40.228073,29.009237,31.37,-0.25,-1.19,10.57,0.01,-0.01,-0.01
40.228248,29.009237,37.54,-0.22,-0.86,10.69,0.0,0.01,-0.01
40.228248,29.009237,37.54,0.14,-0.84,9.65,0.0,-0.01,0.01
40.228248,29.009237,37.54,-0.19,-0.51,9.89,0.03,-0.0,-0.01
40.228248,29.009237,37.54,-0.19,-0.69,9.38,0.0,0.0,-0.01
40.228347,29.009235,39.76,0.08,-0.46,9.25,0.03,0.0,-0.01
40.228347,29.009235,39.76,0.35,-0.89,9.92,0.0,-0.0,-0.02
40.228347,29.009235,39.76,-0.47,-0.85,10.06,0.01,0.01,-0.01
40.228347,29.009235,39.76,-0.31,-0.46,9.7,0.01,-0.01,-0.01
40.228454,29.009235,42.17,-0.08,-0.79,10.75,0.0,-0.0,-0.01
40.228454,29.009235,42.17,0.04,-0.39,10.73,-0.0,0.01,-0.01
40.228454,29.009235,42.17,-0.23,-0.58,11.1,-0.01,-0.02,-0.01
40.228454,29.009235,42.17,-0.2,-0.77,9.53,0.02,-0.01,-0.01
40.228454,29.009235,42.17,0.2,-0.77,9.27,0.0,-0.01,-0.01
40.228565,29.009231,43.82,-0.24,-0.76,9.74,0.01,0.0,-0.01
40.228683,29.009233,46.39,-0.87,-0.79,9.02,0.02,-0.01,-0.01
40.228805,29.009235,48.11,-0.24,0.0,9.67,0.01,0.02,-0.02
40.228805,29.009235,48.11,0.04,-0.58,9.2,0.03,0.03,-0.01
40.228805,29.009235,48.11,-0.27,-0.11,9.6,0.02,0.03,-0.01
40.228805,29.009235,48.11,-0.7,-0.2,10.71,0.01,0.01,-0.03
40.228805,29.009235,48.11,-0.15,-0.13,10.77,0.01,0.0,-0.02
40.228927,29.009237,48.91,-0.68,0.23,11.01,0.01,0.0,-0.02
40.228927,29.009237,48.91,-0.89,-0.14,10.33,-0.01,0.0,-0.01
40.228927,29.009237,48.91,-0.47,-0.53,10.75,-0.01,0.0,-0.02
40.228927,29.009237,48.91,-1.27,-0.06,11.56,0.0,-0.0,-0.02
40.229053,29.009241,48.58,-0.13,0.18,11.03,0.0,-0.0,-0.03
40.229053,29.009241,48.58,-0.77,-0.07,10.62,0.04,0.02,-0.01
40.229053,29.009241,48.58,-0.71,-0.05,8.99,0.02,-0.01,-0.02
40.229171,29.009244,48.24,-0.78,-0.6,11.53,0.01,0.01,-0.01
40.229171,29.009244,48.24,-0.13,0.03,8.54,0.0,-0.0,-0.0
40.229293,29.009248,47.78,-0.37,0.03,10.99,-0.01,0.0,-0.01
40.229293,29.009248,47.78,-0.46,0.06,10.04,0.02,0.0,-0.0
40.229293,29.009248,47.78,-0.45,-0.32,10.31,-0.0,0.01,-0.01
40.22953,29.009254,46.43,-0.2,0.18,10.47,0.02,-0.01,0.0
40.22953,29.009254,46.43,0.11,-0.15,9.3,0.04,-0.01,0.0
40.229648,29.009258,47.08,-0.35,-0.06,10.78,0.02,0.0,-0.0
40.229648,29.009258,47.08,0.08,0.09,9.46,-0.02,0.02,0.0
40.229648,29.009258,47.08,-0.17,-0.14,9.29,-0.03,-0.0,0.0
40.229648,29.009258,47.08,-0.53,0.57,11.64,-0.01,0.01,0.01
40.229648,29.009258,47.08,-0.04,0.18,9.42,0.03,0.02,-0.01
40.229648,29.009258,47.08,-0.05,-0.16,11.07,-0.01,0.01,0.0
40.229766,29.00926,45.67,-0.47,0.26,10.83,0.05,-0.01,0.01
40.229766,29.00926,45.67,-0.1,0.44,10.34,0.01,-0.02,-0.01
40.229766,29.00926,45.67,0.78,0.08,10.99,0.01,-0.03,-0.01
40.229766,29.00926,45.67,0.06,0.41,9.73,0.01,-0.02,-0.0
40.229766,29.00926,45.67,-0.19,-0.45,9.3,0.01,-0.01,0.0
40.229877,29.009258,44.61,-0.39,-0.02,9.58,0.03,-0.01,0.01
40.229877,29.009258,44.61,-0.11,-0.01,10.24,0.02,-0.01,0.0
40.229877,29.009258,44.61,0.35,-0.14,9.59,-0.0,-0.03,0.01
40.229877,29.009258,44.61,0.23,0.29,10.36,0.04,-0.0,0.01
40.229877,29.009258,44.61,-0.74,-0.1,10.38,-0.0,0.03,-0.0
40.229877,29.009258,44.61,-0.34,0.41,10.7,0.03,-0.01,0.0
40.229988,29.009258,44.37,0.67,0.57,10.35,0.01,-0.01,-0.01
40.229988,29.009258,44.37,-0.23,-0.2,11.4,-0.0,-0.02,-0.02
40.229988,29.009258,44.37,-0.24,-0.29,10.62,-0.03,-0.01,-0.03
40.229988,29.009258,44.37,-0.35,-0.05,10.65,0.01,-0.01,-0.02
40.229988,29.009258,44.37,-0.23,-0.31,10.39,0.0,-0.0,-0.03
40.229988,29.009258,44.37,-0.85,0.02,10.27,0.02,-0.0,-0.03
40.229988,29.009258,44.37,-0.44,-0.09,8.78,0.02,-0.0,-0.02
40.230209,29.009256,42.69,0.09,0.14,9.89,0.01,0.01,-0.02
40.230209,29.009256,42.69,-0.27,-0.27,9.42,0.0,0.02,-0.02
40.230209,29.009256,42.69,-0.7,-0.02,10.82,-0.01,0.01,-0.02
40.230209,29.009256,42.69,-0.58,0.19,10.41,0.0,0.01,-0.02
40.230209,29.009256,42.69,-0.46,0.19,9.6,-0.02,0.01,-0.01
40.230312,29.009258,41.48,-0.55,-0.51,8.47,0.01,0.01,-0.02
40.230312,29.009258,41.48,-0.91,-0.06,10.35,0.03,0.01,-0.02
40.230312,29.009258,41.48,-0.26,-0.07,10.64,0.02,-0.01,-0.01
40.230312,29.009258,41.48,-0.97,0.12,10.64,0.02,-0.01,-0.02
40.230312,29.009258,41.48,0.14,0.2,10.01,0.02,-0.03,-0.02
40.230312,29.009258,41.48,-0.91,0.01,10.96,0.02,-0.0,-0.02
40.230312,29.009258,41.48,-0.94,0.23,10.55,0.03,0.02,-0.02
40.230411,29.00926,40.06,-0.67,0.87,9.92,0.01,0.01,-0.01
40.230411,29.00926,40.06,-0.92,0.47,10.31,0.01,-0.01,-0.02
40.230411,29.00926,40.06,-0.96,0.47,10.64,-0.0,-0.01,-0.02
40.23051,29.009263,39.17,-0.03,0.51,10.42,-0.0,-0.01,-0.01
40.23051,29.009263,39.17,-0.83,0.68,8.25,0.03,0.01,-0.01
40.230602,29.009267,36.02,-0.3,0.24,9.89,0.01,-0.0,-0.03
40.230602,29.009267,36.02,-0.19,0.62,10.64,0.01,0.0,-0.02
40.23069,29.009275,34.47,0.03,0.34,10.15,-0.01,-0.01,-0.02
40.23077,29.009284,30.89,-0.66,0.73,10.43,0.01,0.01,-0.02
40.230842,29.009292,28.08,0.76,0.81,9.91,0.01,-0.02,0.11
40.230842,29.009292,28.08,0.89,0.8,9.6,0.01,-0.03,0.12
40.231056,29.009229,17.21,1.78,0.38,9.73,-0.02,-0.02,0.33
40.231082,29.009183,17.48,1.54,0.75,10.1,-0.01,-0.01,0.35
40.231082,29.009183,17.48,1.6,0.67,9.85,0.0,0.0,0.35
40.231082,29.009183,17.48,1.45,0.56,9.76,0.01,0.01,0.36
40.231094,29.009136,16.22,1.1,0.47,10.14,-0.01,0.0,0.35
40.231094,29.009136,16.22,1.29,0.65,9.7,0.01,-0.01,0.36
40.23109,29.009088,15.26,1.53,0.59,9.69,0.01,-0.01,0.36
40.23109,29.009088,15.26,0.9,0.18,9.34,0.0,-0.02,0.35
40.23109,29.009088,15.26,1.16,-0.02,10.05,-0.02,-0.04,0.36
40.231052,29.009019,12.37,2.21,-0.72,10.92,0.01,0.0,0.37
40.231052,29.009019,12.37,2.17,-1.15,10.53,-0.02,-0.01,0.32
40.23101,29.009006,18.09,1.6,-1.42,10.29,0.02,0.02,0.22
40.23101,29.009006,18.09,0.88,-1.59,10.02,-0.02,0.05,0.17
40.23101,29.009006,18.09,1.02,-1.48,10.3,-0.02,0.04,0.15
40.23101,29.009006,18.09,0.95,-1.3,9.62,0.0,0.06,0.13
40.23101,29.009006,18.09,0.96,-1.57,10.38,0.0,0.06,0.11
40.23101,29.009006,18.09,0.29,-1.66,10.31,0.01,0.07,0.1
40.23101,29.009006,18.09,0.28,-1.31,10.45,-0.01,0.06,0.08
40.230957,29.009008,23.95,-0.46,-1.58,10.81,0.02,0.07,0.03
40.230957,29.009008,23.95,0.15,-2.02,10.69,-0.02,0.03,0.01
40.230957,29.009008,23.95,-0.47,-1.35,10.62,0.02,0.05,-0.01
40.230957,29.009008,23.95,-0.37,-1.11,9.28,0.01,0.03,-0.01
40.230957,29.009008,23.95,-0.54,-2.06,10.29,-0.01,0.0,-0.02
40.230957,29.009008,23.95,-0.62,-1.16,10.84,0.04,0.02,-0.02
40.230957,29.009008,23.95,-0.37,-1.8,9.79,0.01,-0.02,-0.03
40.230957,29.009008,23.95,-0.1,-1.1,9.5,0.02,0.01,-0.03
40.230957,29.009008,23.95,-0.14,-1.76,9.19,0.05,0.01,-0.03
40.230957,29.009008,23.95,-0.43,-1.05,12.77,-0.01,0.01,-0.04
40.230957,29.009008,23.95,0.41,-1.29,9.79,0.02,0.0,-0.03
40.230957,29.009008,23.95,-0.16,-1.61,8.42,0.02,-0.03,-0.04
40.230892,29.009012,23.95,-0.19,-1.89,8.54,0.0,-0.0,-0.02
40.230892,29.009012,23.95,0.17,-1.44,10.06,0.03,0.01,-0.02
40.230892,29.009012,23.95,0.15,-1.44,10.32,0.01,0.02,-0.02
40.230892,29.009012,23.95,-0.7,-1.17,11.68,0.01,0.03,-0.03
40.23072,29.00901,36.61,0.19,-1.3,10.1,0.04,-0.0,-0.01
40.23072,29.00901,36.61,-0.1,-1.04,11.01,-0.01,0.0,-0.0
40.23072,29.00901,36.61,-0.42,-1.3,10.94,0.0,0.02,-0.01
40.23072,29.00901,36.61,-0.16,-1.25,10.09,0.01,0.02,-0.02
40.230621,29.009016,40.61,-0.02,-1.11,10.7,-0.0,-0.0,-0.01
40.230514,29.009023,43.39,-0.97,-0.56,11.32,0.02,0.04,-0.01
40.230514,29.009023,43.39,-0.04,-0.06,10.95,0.01,0.01,-0.01
40.230514,29.009023,43.39,-0.19,-0.04,9.42,0.02,0.0,-0.0
40.2304,29.009031,45.11,-0.41,0.03,10.86,0.01,0.01,-0.01
40.2304,29.009031,45.11,-0.29,0.05,10.83,0.03,0.01,-0.01
40.2304,29.009031,45.11,0.13,-0.25,9.66,0.02,0.0,-0.01
40.230178,29.009035,44.6,-0.17,-0.36,10.39,-0.0,0.01,-0.02
40.230178,29.009035,44.6,-0.29,-0.4,10.18,0.03,0.02,-0.01
40.230068,29.009033,43.99,-0.1,-0.05,10.97,-0.01,-0.0,-0.01
40.230068,29.009033,43.99,0.01,-0.17,10.48,0.0,-0.0,-0.01
40.230068,29.009033,43.99,-0.79,-0.33,11.09,-0.0,-0.01,-0.01
40.229957,29.009027,43.82,0.02,-0.74,10.25,0.0,-0.02,0.0
40.229957,29.009027,43.82,0.48,-0.04,9.8,0.05,0.0,0.0
40.229957,29.009027,43.82,-0.25,-0.94,9.8,-0.0,-0.01,-0.0
40.22985,29.009025,43.28,0.24,-0.13,10.57,0.03,0.01,0.0
40.22985,29.009025,43.28,-0.38,-0.09,9.91,0.03,-0.0,-0.01
40.229743,29.009025,43.19,-0.14,-0.1,11.03,0.01,-0.0,-0.01
40.229743,29.009025,43.19,-0.17,-0.25,10.58,-0.0,0.0,-0.01
40.229743,29.009025,43.19,0.28,-0.23,9.89,-0.01,-0.02,-0.01
40.229743,29.009025,43.19,-0.51,-0.5,10.41,-0.0,-0.01,-0.0
40.229637,29.009023,42.65,0.07,0.04,10.0,0.03,0.01,-0.01
40.229637,29.009023,42.65,-0.23,-0.29,10.45,0.03,0.01,-0.01
40.22953,29.009025,42.87,-0.54,-0.69,9.41,-0.02,0.02,-0.01
40.22953,29.009025,42.87,-0.24,-0.44,10.13,0.01,0.0,-0.02
40.22953,29.009025,42.87,0.08,-0.58,9.65,-0.01,-0.02,-0.02
40.22953,29.009025,42.87,-0.86,-0.4,9.87,0.03,-0.01,-0.01
40.22953,29.009025,42.87,-0.09,-0.51,9.72,0.02,-0.02,-0.02
40.229419,29.009025,43.41,-0.87,-0.15,11.24,0.01,-0.0,-0.01
40.229419,29.009025,43.41,-0.01,-0.0,10.17,0.01,0.01,-0.01
40.229419,29.009025,43.41,-0.62,-0.75,10.44,0.0,0.02,-0.02
40.229419,29.009025,43.41,-0.58,-0.82,9.15,-0.01,0.01,-0.02
40.229419,29.009025,43.41,-1.08,-1.02,9.66,0.01,0.03,-0.02
40.229419,29.009025,43.41,-1.08,-0.41,9.22,-0.0,0.03,-0.0
40.229312,29.009027,43.8,0.27,-0.4,10.31,0.02,-0.0,-0.01
40.229312,29.009027,43.8,-0.23,-0.79,9.98,0.02,0.01,-0.02
40.229312,29.009027,43.8,-0.32,-0.4,9.04,0.02,-0.02,-0.02
40.229312,29.009027,43.8,-0.27,-0.42,9.51,0.01,-0.0,-0.01
40.229312,29.009027,43.8,-0.28,-0.51,10.74,-0.0,-0.01,-0.01
40.229202,29.009027,43.87,-0.11,-0.41,9.66,-0.0,-0.0,-0.01
40.229202,29.009027,43.87,-0.33,-0.3,9.51,0.03,0.0,-0.0
40.229202,29.009027,43.87,-0.4,-0.3,10.01,0.0,0.01,-0.01
40.229202,29.009027,43.87,-0.41,-0.3,10.23,0.0,0.01,-0.01
40.229091,29.009027,44.34,0.04,0.22,10.32,0.03,0.01,-0.0
40.229091,29.009027,44.34,-0.79,-0.37,10.26,0.02,0.0,-0.0
40.229091,29.009027,44.34,-0.28,-0.07,10.9,0.01,-0.01,-0.01
40.229091,29.009027,44.34,-0.3,-0.21,10.24,-0.01,-0.01,-0.01
40.228981,29.009027,44.26,-0.71,0.21,10.09,0.0,0.0,-0.01
40.228981,29.009027,44.26,-0.73,0.39,10.39,0.01,0.0,-0.01
40.228981,29.009027,44.26,0.05,0.81,9.23,-0.0,-0.01,-0.01
40.228981,29.009027,44.26,-0.14,1.42,9.54,0.01,0.0,-0.0
40.228981,29.009027,44.26,-1.73,2.53,11.63,0.07,0.03,0.0
40.228981,29.009027,44.26,-0.04,1.74,10.91,0.02,-0.01,-0.01
40.228981,29.009027,44.26,-0.29,1.08,9.25,0.03,0.03,-0.01
40.228981,29.009027,44.26,0.22,2.04,8.48,-0.01,-0.01,0.0
40.228981,29.009027,44.26,-1.1,2.24,11.73,0.02,0.03,-0.0
40.228981,29.009027,44.26,-0.52,1.29,9.95,-0.01,0.0,-0.01
40.228981,29.009027,44.26,-0.23,2.72,10.06,0.02,-0.0,-0.0
40.228981,29.009027,44.26,-0.0,2.63,11.1,-0.01,0.01,0.0
40.228981,29.009027,44.26,-0.15,1.64,9.85,-0.03,-0.02,-0.01
40.228981,29.009027,44.26,-0.46,2.23,10.22,-0.01,0.01,-0.01
40.228981,29.009027,44.26,-1.61,2.51,11.04,0.02,0.01,-0.02
40.228981,29.009027,44.26,-0.98,1.52,9.72,0.01,0.01,-0.01
40.228981,29.009027,44.26,-1.23,2.4,11.09,0.03,0.0,0.0
40.228981,29.009027,44.26,-0.4,1.57,9.12,0.02,0.02,-0.0
40.228981,29.009027,44.26,-0.6,2.67,8.69,0.03,-0.01,-0.03
40.228981,29.009027,44.26,-0.03,0.98,12.3,-0.04,-0.02,-0.02
40.228981,29.009027,44.26,-0.65,1.54,10.1,-0.01,0.01,-0.02
40.228782,29.009027,34.35,-0.5,1.89,8.47,-0.02,-0.01,-0.02
40.228782,29.009027,34.35,-0.32,2.52,10.14,0.01,0.0,-0.02
40.228782,29.009027,34.35,-0.1,1.81,9.72,0.0,-0.0,-0.01
40.228782,29.009027,34.35,-0.79,2.43,10.98,0.01,0.01,-0.01
40.228782,29.009027,34.35,-0.87,1.88,9.77,0.01,0.0,-0.02
40.228782,29.009027,34.35,-0.8,1.92,11.43,0.02,0.01,-0.01
40.228782,29.009027,34.35,-0.73,1.92,11.67,-0.03,0.0,-0.01
40.228706,29.009025,28.0,-0.29,2.02,9.77,-0.0,-0.01,-0.01
40.228706,29.009025,28.0,-0.88,2.42,8.83,0.05,0.0,0.0
40.228706,29.009025,28.0,0.0,1.66,9.3,0.01,-0.01,-0.02
40.228706,29.009025,28.0,-0.65,1.96,10.82,-0.01,-0.0,-0.01
40.228633,29.009023,8.45,-0.54,1.53,10.26,0.01,-0.0,-0.01
40.228633,29.009023,8.45,-0.29,-0.08,9.99,0.01,-0.0,-0.01
40.228622,29.009023,8.45,-0.26,-0.68,10.41,0.01,-0.0,-0.01
40.228618,29.009023,1.8,-0.12,-1.26,10.01,0.02,-0.0,-0.01
40.228618,29.009023,1.8,-0.26,-1.28,9.91,0.01,-0.0,-0.01
40.228591,29.009023,6.52,-0.29,-0.94,10.72,0.0,-0.0,-0.01
40.228591,29.009023,6.52,-0.14,-1.28,10.24,0.03,-0.0,-0.01
40.228565,29.009023,11.07,-1.22,-0.93,10.24,0.03,0.06,-0.01
40.228565,29.009023,11.07,-0.95,-1.16,9.23,0.01,0.01,-0.01
40.22853,29.009023,14.87,0.02,-0.97,10.71,-0.01,0.01,-0.01
40.22853,29.009023,14.87,-0.68,-1.29,9.85,0.0,0.01,-0.01
40.22853,29.009023,14.87,-0.41,-0.84,9.83,0.03,0.03,0.0
40.22853,29.009023,14.87,0.28,-1.37,10.86,-0.02,0.0,-0.01
40.22853,29.009023,14.87,-0.09,-1.26,11.0,-0.02,-0.01,-0.02
40.228485,29.009021,18.63,0.33,-1.66,11.16,-0.01,-0.02,-0.01
40.228485,29.009021,18.63,-0.13,-1.42,9.98,0.02,-0.0,-0.0
40.228435,29.009021,22.06,-0.07,-1.08,8.77,0.04,0.01,-0.0
40.228435,29.009021,22.06,-0.15,-1.03,10.46,-0.01,0.0,-0.01
40.228435,29.009021,22.06,0.34,-1.22,8.69,0.0,-0.04,-0.01
40.228435,29.009021,22.06,0.01,-1.63,8.89,0.01,0.0,-0.02
40.228435,29.009021,22.06,0.06,-0.63,7.85,0.02,0.03,-0.01
40.228435,29.009021,22.06,-0.16,-0.28,9.28,0.0,0.01,-0.01
40.228374,29.009021,24.58,-0.91,-0.8,10.8,0.02,0.04,-0.01
40.228374,29.009021,24.58,0.23,-0.33,10.15,0.01,-0.01,-0.0
40.228374,29.009021,24.58,-0.31,-0.33,10.81,-0.0,-0.0,-0.01
40.228374,29.009021,24.58,0.37,0.14,9.55,0.01,-0.02,-0.01
40.228313,29.009021,25.65,-0.39,-0.19,9.99,-0.01,-0.0,-0.01
40.228313,29.009021,25.65,-1.24,0.4,9.82,0.0,0.02,-0.01
40.228313,29.009021,25.65,0.52,0.62,11.1,-0.01,-0.03,-0.02
40.228313,29.009021,25.65,-0.21,0.11,10.52,0.01,-0.01,-0.01
40.228313,29.009021,25.65,-0.18,0.22,10.46,0.01,-0.01,-0.01
40.228313,29.009021,25.65,-1.02,0.68,11.27,0.02,-0.01,-0.0
40.228313,29.009021,25.65,-0.0,0.57,9.51,0.01,-0.01,-0.01
40.228313,29.009021,25.65,-0.82,0.69,11.46,0.02,0.03,-0.01
40.228313,29.009021,25.65,-0.37,0.21,9.26,0.02,0.01,-0.02
40.228191,29.009019,23.89,-0.78,0.54,9.79,0.01,0.01,-0.01
40.228134,29.009017,21.13,-0.32,-0.2,10.57,0.0,0.0,-0.02
40.228134,29.009017,21.13,-0.39,-0.17,7.51,-0.02,0.02,-0.01
40.228134,29.009017,21.13,-0.55,-0.03,9.96,0.01,0.01,-0.0
40.228084,29.009017,20.45,-0.57,-0.05,9.42,-0.02,-0.02,-0.01
40.227909,29.009241,17.09,1.54,-1.13,10.23,-0.01,0.02,0.25
40.227909,29.009241,17.09,0.87,-1.41,9.51,0.01,0.05,0.22
40.227909,29.009241,17.09,0.74,-1.42,9.73,0.0,0.05,0.18
40.227909,29.009241,17.09,0.72,-1.3,9.68,0.01,0.06,0.16
40.227909,29.009241,17.09,0.84,-1.1,9.97,0.01,0.06,0.14
40.227909,29.009241,17.09,0.19,-1.3,10.12,-0.0,0.05,0.12
40.227909,29.009241,17.09,0.3,-1.13,9.67,0.02,0.05,0.11
40.227909,29.009241,17.09,-0.49,-0.89,11.01,-0.0,0.04,0.07
40.227909,29.009241,17.09,0.06,-1.13,10.06,0.02,0.03,0.05
40.227909,29.009241,17.09,-0.66,-1.18,9.71,-0.0,0.03,0.03
40.227909,29.009241,17.09,-0.14,-1.4,10.23,0.01,0.02,-0.0
40.227909,29.009241,17.09,-0.44,-1.01,10.81,-0.0,-0.02,-0.02
40.227909,29.009241,17.09,-0.3,-0.91,9.69,0.02,-0.02,-0.02
40.227909,29.009241,17.09,-0.16,-1.72,10.68,0.01,-0.02,-0.01
40.227909,29.009241,17.09,-0.06,-0.91,11.0,0.01,-0.02,-0.02
40.228019,29.009235,25.59,0.0,-0.53,9.21,0.02,-0.0,-0.01
40.228019,29.009235,25.59,-0.31,-1.02,10.64,0.03,0.01,-0.02
40.228019,29.009235,25.59,-0.3,-1.0,9.55,0.02,0.02,-0.01
40.228019,29.009235,25.59,0.45,-0.91,10.58,0.03,0.01,-0.02
40.228019,29.009235,25.59,-0.73,-1.17,11.62,-0.0,0.01,-0.02
40.228019,29.009235,25.59,-0.36,-1.24,9.0,0.01,0.02,-0.03
40.228019,29.009235,25.59,0.4,-0.76,11.3,0.02,0.02,-0.01
40.228019,29.009235,25.59,-0.65,-0.97,10.12,0.02,-0.01,-0.03
40.228019,29.009235,25.59,-0.04,-1.13,10.16,0.03,0.01,-0.02
40.228019,29.009235,25.59,-0.7,-1.12,12.17,0.02,0.0,-0.03
40.228019,29.009235,25.59,-0.78,-1.64,9.04,0.03,0.0,-0.03
40.228019,29.009235,25.59,-0.63,-1.05,9.35,0.03,-0.01,-0.02
40.228019,29.009235,25.59,-0.83,-0.68,11.23,0.03,-0.0,-0.03
40.228019,29.009235,25.59,-0.65,-0.66,10.13,0.01,-0.01,-0.03
40.228019,29.009235,25.59,-0.06,-1.45,10.93,0.01,0.0,-0.02
40.228019,29.009235,25.59,-0.12,-1.29,9.28,-0.01,0.01,-0.03
40.228019,29.009235,25.59,-0.62,-0.44,9.26,0.01,0.01,-0.02
40.228168,29.009231,32.19,-0.6,-0.68,9.81,0.03,-0.01,-0.03
40.228168,29.009231,32.19,-0.35,-0.91,8.67,0.01,-0.0,-0.02
40.228168,29.009231,32.19,-0.54,-0.76,11.11,0.01,-0.0,-0.03
40.228168,29.009231,32.19,-0.6,-0.75,11.12,0.01,0.0,-0.02
40.228256,29.009233,35.3,0.01,-0.66,10.49,0.02,0.01,-0.02
40.228256,29.009233,35.3,-0.22,-0.81,10.11,0.01,-0.01,-0.01
40.228351,29.009237,38.06,0.01,-0.68,10.03,0.01,0.01,0.0
40.228351,29.009237,38.06,-0.32,-0.76,9.54,0.02,-0.01,-0.01
40.228351,29.009237,38.06,0.42,-0.85,9.86,0.03,-0.01,0.01
40.228351,29.009237,38.06,-0.23,-0.77,10.49,0.0,0.0,0.0
40.228351,29.009237,38.06,-0.26,-0.73,11.73,0.0,0.02,-0.0
40.228351,29.009237,38.06,-0.27,-0.96,11.94,0.02,0.01,0.0
40.228351,29.009237,38.06,-0.5,-0.73,10.37,-0.03,0.02,0.0
40.228351,29.009237,38.06,-0.2,-0.68,10.86,0.02,0.01,-0.0
40.228557,29.009241,42.32,-0.45,-0.65,10.19,-0.0,0.01,-0.01
40.228557,29.009241,42.32,-0.23,-0.08,9.91,0.01,0.02,-0.0
40.228668,29.009241,43.76,-0.42,-0.09,10.11,0.0,0.01,-0.01
40.228668,29.009241,43.76,-0.23,-0.69,10.22,0.03,-0.01,-0.01
40.228668,29.009241,43.76,-0.61,-0.32,9.79,0.03,-0.02,-0.01
40.228668,29.009241,43.76,-0.46,-1.03,9.08,0.02,-0.0,-0.02
40.228778,29.009241,44.65,-0.25,-0.2,8.91,0.01,-0.0,-0.0
40.228778,29.009241,44.65,-0.46,-0.22,10.87,0.02,0.0,-0.01
40.228778,29.009241,44.65,-1.0,-0.15,10.14,0.02,0.01,-0.0
40.228778,29.009241,44.65,-0.11,-0.68,9.57,-0.01,0.0,-0.01
40.228778,29.009241,44.65,-0.26,-0.12,10.72,0.01,0.01,-0.01
40.228889,29.009241,44.91,0.5,-0.04,10.77,0.02,-0.01,-0.01
40.228889,29.009241,44.91,-0.65,0.08,11.28,0.03,0.01,-0.0
40.228889,29.009241,44.91,-0.63,-0.41,10.53,0.02,-0.0,-0.01
40.228889,29.009241,44.91,-0.23,-0.31,9.21,-0.02,-0.01,0.0
40.228889,29.009241,44.91,-0.06,-0.02,10.29,0.01,0.01,0.0
40.229003,29.009243,45.65,-0.14,-0.43,10.38,-0.0,-0.01,-0.02
40.229003,29.009243,45.65,-0.43,-0.22,9.43,0.01,0.01,-0.01
40.229003,29.009243,45.65,0.42,-0.08,9.23,0.02,-0.01,-0.01
40.229003,29.009243,45.65,-0.39,-0.13,10.2,0.01,0.01,-0.01
40.229003,29.009243,45.65,-0.41,-0.09,10.92,0.03,0.02,-0.01
40.229122,29.009243,46.32,-0.32,-0.15,10.25,0.01,-0.0,-0.01
40.229122,29.009243,46.32,-0.04,-0.29,9.67,0.0,-0.0,-0.01
40.229122,29.009243,46.32,-0.4,-0.66,10.24,0.02,0.01,-0.01
40.229122,29.009243,46.32,-0.2,-0.34,10.43,0.05,0.02,0.0
40.229122,29.009243,46.32,-0.63,-0.55,10.38,0.02,0.0,-0.01
40.229122,29.009243,46.32,0.01,-0.62,10.61,-0.01,-0.02,-0.01
40.229122,29.009243,46.32,-0.08,-0.12,9.46,0.02,-0.0,-0.01
40.229351,29.009243,46.45,-0.52,-0.52,10.22,-0.01,0.01,-0.01
40.229351,29.009243,46.45,-0.64,-0.67,10.96,-0.01,0.01,-0.02
40.229351,29.009243,46.45,-0.36,-0.33,10.94,0.0,-0.01,-0.01
40.229351,29.009243,46.45,-0.24,-0.12,10.13,-0.01,-0.0,-0.01
40.229469,29.009243,46.54,-0.65,-0.74,10.49,0.01,0.0,-0.01
40.229469,29.009243,46.54,0.0,-0.16,10.58,0.01,-0.02,-0.01
40.229583,29.009244,46.86,-0.07,-0.07,11.53,0.01,-0.0,-0.0
40.229583,29.009244,46.86,-0.67,-0.7,9.7,-0.0,0.01,-0.01
40.229583,29.009244,46.86,-0.33,-0.27,10.58,0.02,-0.0,-0.0
40.229701,29.009246,47.02,-0.47,-0.53,10.15,0.01,0.02,0.01
40.229701,29.009246,47.02,-0.44,0.02,12.05,0.05,-0.0,0.0
40.229701,29.009246,47.02,-0.43,-0.59,10.9,0.01,-0.01,-0.01
40.229701,29.009246,47.02,-0.17,-0.58,9.73,0.02,-0.02,-0.01
40.229701,29.009246,47.02,-0.31,-0.5,10.63,-0.02,-0.02,-0.01
40.229701,29.009246,47.02,-0.34,0.23,12.1,0.01,-0.01,-0.01
40.22982,29.009248,47.02,-0.34,0.15,10.27,0.01,-0.0,-0.01
40.229938,29.00925,47.19,-0.38,-0.04,10.16,0.02,-0.01,-0.01
40.229938,29.00925,47.19,-0.59,-0.03,11.06,0.02,0.01,-0.0
40.229938,29.00925,47.19,-0.12,0.24,10.51,-0.01,-0.01,-0.02
40.229938,29.00925,47.19,0.11,-0.21,10.02,-0.03,-0.03,-0.0
40.229938,29.00925,47.19,-0.07,0.23,9.03,-0.01,-0.01,-0.01
40.229938,29.00925,47.19,-0.34,0.03,10.64,0.02,-0.0,-0.01
40.230056,29.009252,47.43,-0.21,0.65,9.57,0.03,0.01,-0.01
40.230056,29.009252,47.43,-0.42,0.69,11.19,0.01,0.01,-0.01
40.230056,29.009252,47.43,-0.02,1.06,10.09,0.02,-0.0,-0.02
40.230171,29.009252,45.36,-0.24,0.34,9.51,0.02,0.0,-0.01
40.230171,29.009252,45.36,0.13,0.67,10.41,0.01,0.03,-0.02
40.230171,29.009252,45.36,-0.06,0.83,9.25,0.02,0.02,-0.01
40.230171,29.009252,45.36,-0.45,0.73,11.0,0.01,0.01,-0.01
40.230171,29.009252,45.36,-0.78,0.66,10.63,-0.01,0.02,-0.01
40.230171,29.009252,45.36,-0.6,0.2,9.32,0.02,0.03,-0.01
40.230171,29.009252,45.36,-1.0,0.43,10.11,-0.01,0.0,-0.01
40.230278,29.009252,45.36,-0.51,0.41,10.76,0.02,0.0,-0.01
40.230278,29.009252,45.36,-0.52,0.25,10.59,0.01,0.01,-0.01
40.230278,29.009252,45.36,-0.58,0.51,11.85,0.01,-0.03,-0.01
40.230278,29.009252,45.36,-0.33,0.29,10.87,0.01,-0.02,-0.01
40.230278,29.009252,45.36,-0.35,0.29,10.16,0.02,-0.01,-0.0
40.230381,29.009254,40.73,-0.39,0.33,9.63,0.01,-0.01,-0.02
40.23048,29.009254,38.43,-0.74,0.62,10.63,0.02,0.01,-0.02
40.23048,29.009254,38.43,0.04,0.56,10.03,0.01,-0.0,-0.02
40.230571,29.009256,36.48,-0.26,0.76,10.58,0.02,-0.01,-0.03
40.230659,29.00926,33.78,-1.11,1.1,10.5,0.02,0.0,-0.04
40.230659,29.00926,33.78,-1.02,0.64,10.23,0.01,-0.0,-0.05
40.230659,29.00926,33.78,-0.48,0.89,11.08,0.03,-0.02,-0.04
40.230739,29.009265,31.3,-0.61,0.45,10.78,0.0,-0.01,-0.03
40.230812,29.009275,28.21,0.43,0.6,9.89,0.0,0.0,0.07
40.230987,29.009267,21.0,1.91,0.59,10.39,-0.0,-0.01,0.26
40.230987,29.009267,21.0,1.46,0.39,10.41,0.01,-0.01,0.27
40.231079,29.009141,18.04,1.69,0.48,9.65,-0.0,-0.0,0.34
40.231079,29.009141,18.04,1.52,0.63,9.72,0.01,0.01,0.35
40.231079,29.009141,18.04,1.22,0.31,11.51,0.01,0.02,0.36
40.231079,29.009141,18.04,1.51,0.56,10.17,0.01,-0.01,0.35
40.231082,29.009088,16.83,1.31,0.44,10.15,-0.01,-0.01,0.36
40.231082,29.009088,16.83,1.29,0.51,9.98,0.01,0.01,0.35
40.231082,29.009088,16.83,1.06,0.49,9.8,0.0,-0.01,0.35
40.231067,29.009046,13.82,1.64,-0.2,9.76,0.01,-0.01,0.36
40.231067,29.009046,13.82,1.33,-0.21,10.17,-0.03,-0.02,0.36
40.230998,29.008985,19.89,1.51,-1.11,9.86,-0.01,-0.02,0.33
40.230998,29.008985,19.89,1.86,-0.92,9.91,0.02,-0.03,0.32
40.230998,29.008985,19.89,1.68,-1.37,9.46,0.01,0.03,0.23
40.230949,29.008972,21.96,1.09,-1.25,10.04,0.01,0.06,0.2
40.230949,29.008972,21.96,0.61,-1.5,10.55,-0.01,0.06,0.14
40.230949,29.008972,21.96,0.88,-1.48,10.8,-0.02,0.04,0.12
40.230949,29.008972,21.96,0.25,-1.62,10.71,-0.01,0.04,0.09
40.230949,29.008972,21.96,-0.17,-1.53,10.84,-0.0,0.05,0.07
40.230949,29.008972,21.96,0.17,-1.13,9.46,0.03,0.03,0.06
40.230949,29.008972,21.96,0.34,-1.17,9.64,-0.01,0.01,0.03
40.230949,29.008972,21.96,0.09,-1.75,10.32,-0.0,-0.01,0.02
40.230949,29.008972,21.96,-0.06,-1.65,9.87,-0.01,0.0,0.02
40.230949,29.008972,21.96,-0.28,-1.31,10.65,0.03,0.01,0.01
40.230949,29.008972,21.96,-0.73,-1.19,11.79,0.01,0.01,0.01
40.230949,29.008972,21.96,-0.71,-0.87,12.18,0.02,0.0,-0.0
40.230888,29.008975,26.47,-0.52,-1.04,11.61,0.02,-0.0,-0.01
40.230888,29.008975,26.47,-0.26,-1.59,8.49,0.02,0.0,-0.02
40.230888,29.008975,26.47,0.17,-1.68,8.45,0.0,0.02,-0.03
40.230888,29.008975,26.47,-0.38,-1.18,11.69,0.0,0.03,-0.03
40.230888,29.008975,26.47,-0.6,-1.64,9.64,0.0,0.01,-0.05
40.230888,29.008975,26.47,0.29,-1.44,8.42,0.01,0.02,-0.03
40.230888,29.008975,26.47,-0.27,-1.29,9.25,0.03,0.02,-0.03
40.230888,29.008975,26.47,-0.67,-1.49,10.61,0.01,0.01,-0.04
40.230888,29.008975,26.47,0.09,-1.19,9.32,-0.01,-0.01,-0.04
40.230815,29.008981,30.0,-0.79,-1.72,9.62,0.01,0.01,-0.04
40.230815,29.008981,30.0,-0.02,-1.26,11.45,0.02,-0.01,-0.03
40.230815,29.008981,30.0,-0.31,-1.61,10.35,0.01,-0.0,-0.04
40.230815,29.008981,30.0,-0.28,-0.79,10.04,0.03,-0.03,-0.01
40.230815,29.008981,30.0,-0.14,-1.0,10.36,0.01,-0.03,0.01
40.230815,29.008981,30.0,-0.21,-1.44,10.83,-0.0,-0.03,0.0
40.230735,29.008985,32.21,-0.04,-1.12,9.47,0.02,-0.01,0.02
40.230735,29.008985,32.21,-0.06,-1.08,9.93,-0.0,-0.01,0.02
40.230735,29.008985,32.21,0.52,-1.32,10.29,0.01,0.01,0.02
40.230735,29.008985,32.21,-0.37,-1.2,11.63,0.01,0.01,0.01
40.230735,29.008985,32.21,0.45,-1.51,10.03,-0.0,0.01,0.0
40.230735,29.008985,32.21,-0.08,-1.24,10.18,0.03,0.02,0.0
40.230651,29.008993,34.0,0.04,-1.02,8.92,0.01,0.01,0.0
40.230651,29.008993,34.0,0.12,-0.96,9.77,0.01,0.03,-0.01
40.230651,29.008993,34.0,-0.68,-1.71,9.63,0.01,0.02,-0.01
40.230651,29.008993,34.0,-0.12,-1.31,10.65,0.03,0.02,-0.01
40.230651,29.008993,34.0,-0.65,-1.32,9.67,-0.01,0.01,-0.01
40.230651,29.008993,34.0,-0.4,-1.25,11.17,0.05,0.0,-0.01
40.23056,29.008998,37.17,-0.78,-1.17,9.61,0.02,0.02,-0.03
40.23056,29.008998,37.17,-0.25,-0.56,10.18,0.01,0.0,-0.02
40.23056,29.008998,37.17,-0.87,-1.23,11.15,-0.0,-0.0,-0.02
40.230346,29.009004,45.37,-0.27,-0.14,9.63,0.0,0.01,-0.01
40.230232,29.009004,45.45,0.04,-0.04,8.69,0.03,0.02,0.0
40.23011,29.009004,47.52,0.31,-0.54,9.82,-0.0,0.02,-0.0
40.23011,29.009004,47.52,-0.45,-0.67,11.38,0.01,0.03,-0.01
40.23011,29.009004,47.52,-0.27,-0.3,10.28,-0.01,-0.01,-0.02
40.229995,29.009004,45.02,-0.43,-0.58,9.18,-0.01,0.0,-0.02
40.229995,29.009004,45.02,-0.51,-0.57,9.45,0.0,-0.02,-0.02
40.229877,29.009008,47.0,0.22,-0.46,9.37,0.03,-0.0,-0.0
40.229877,29.009008,47.0,0.17,0.05,10.47,-0.01,-0.0,-0.0
40.229763,29.009006,46.61,-0.02,-0.39,9.05,0.01,-0.01,-0.01
40.229637,29.009006,50.36,0.25,-0.12,9.74,0.02,-0.01,-0.01
40.229396,29.009012,47.26,0.59,0.33,10.97,0.01,0.02,-0.02
40.229396,29.009012,47.26,-0.36,-0.06,10.19,0.03,0.05,-0.0
40.229396,29.009012,47.26,0.12,0.18,9.39,0.0,0.02,-0.01
40.229396,29.009012,47.26,-0.27,0.03,9.66,-0.0,-0.01,-0.02
40.229396,29.009012,47.26,-0.28,0.09,11.25,0.01,-0.0,-0.01
40.229396,29.009012,47.26,-0.66,-0.17,11.09,-0.0,0.0,0.0
40.229396,29.009012,47.26,-0.47,0.02,10.88,0.03,0.0,-0.01
40.229278,29.00901,47.26,-0.58,0.06,10.26,0.0,0.01,-0.02
40.229278,29.00901,47.26,-0.55,0.24,9.65,0.01,0.0,-0.02
40.229278,29.00901,47.26,-0.0,0.02,10.4,0.02,-0.01,-0.01
40.229278,29.00901,47.26,-0.81,-0.07,10.02,0.02,-0.0,-0.01
40.229278,29.00901,47.26,-0.27,-0.07,10.82,0.01,-0.02,-0.02
40.229278,29.00901,47.26,-0.3,0.21,10.73,0.01,-0.0,-0.02
40.229156,29.00901,47.28,-0.04,-0.0,10.23,0.0,0.01,-0.01
40.229156,29.00901,47.28,-0.23,0.58,10.47,0.01,0.0,-0.01
40.229038,29.009006,47.56,0.25,-0.07,9.69,0.0,-0.01,0.0
40.229038,29.009006,47.56,-0.23,0.03,9.79,0.03,-0.0,-0.01
40.229038,29.009006,47.56,-0.48,0.2,12.36,0.0,0.01,-0.01
40.229038,29.009006,47.56,-0.1,-0.29,9.02,-0.02,-0.01,-0.01
40.229038,29.009006,47.56,-0.6,0.07,9.94,0.0,0.0,-0.01
40.229038,29.009006,47.56,-0.07,1.01,9.06,-0.01,-0.0,-0.01
40.228919,29.009006,45.91,-1.57,3.71,11.26,0.06,0.03,0.02
40.228919,29.009006,45.91,-0.66,1.3,10.11,0.02,0.04,0.0
40.228919,29.009006,45.91,-0.66,1.66,9.95,-0.01,0.02,-0.01
40.228919,29.009006,45.91,-0.72,4.77,12.05,0.03,0.02,0.0
40.228919,29.009006,45.91,-2.58,6.14,12.44,0.06,0.01,0.0
40.228919,29.009006,45.91,-0.87,2.29,14.08,0.04,0.0,-0.02
40.228919,29.009006,45.91,0.48,2.23,8.22,0.01,-0.01,-0.0
40.228919,29.009006,45.91,-0.39,1.95,8.92,0.02,-0.0,-0.0
40.228919,29.009006,45.91,-0.25,2.31,11.9,0.08,0.01,0.01
40.228919,29.009006,45.91,-0.85,2.35,7.44,-0.0,-0.03,0.01
40.228809,29.009004,41.52,-0.24,0.38,7.01,0.0,0.01,-0.01
40.228809,29.009004,41.52,-0.57,3.17,10.99,0.01,0.01,-0.01
40.228809,29.009004,41.52,0.27,2.6,12.78,0.0,0.01,-0.02
40.228809,29.009004,41.52,-0.97,2.79,9.6,0.03,0.0,0.0
40.228809,29.009004,41.52,0.53,0.45,5.92,0.03,0.0,-0.04
40.228809,29.009004,41.52,-0.79,1.18,11.09,-0.01,0.02,-0.02
40.228809,29.009004,41.52,-0.52,2.0,9.27,-0.01,-0.02,-0.01
40.228809,29.009004,41.52,-1.01,1.43,10.15,0.01,-0.0,-0.02
40.228809,29.009004,41.52,-0.6,1.51,11.26,0.02,0.0,-0.01
40.228809,29.009004,41.52,-0.61,1.7,9.76,0.03,0.01,-0.01
40.228721,29.009,33.22,-0.98,2.21,11.18,0.01,-0.01,-0.01
40.228721,29.009,33.22,-0.93,0.94,9.0,0.04,-0.03,-0.01
40.228721,29.009,33.22,-0.49,2.11,9.46,0.03,0.01,-0.0
40.228721,29.009,33.22,-1.07,1.7,11.48,-0.0,0.01,-0.02
40.228721,29.009,33.22,-0.75,1.85,10.24,0.02,-0.01,-0.01
40.228652,29.009,25.17,0.31,1.91,9.12,-0.01,-0.02,-0.01
40.228652,29.009,25.17,-0.21,2.24,9.64,0.02,0.01,-0.01
40.228652,29.009,25.17,-0.31,2.05,9.35,0.01,-0.01,-0.01
40.228607,29.008998,16.95,-0.42,1.47,10.59,0.01,0.0,-0.01
40.228561,29.008993,4.13,-0.25,-0.61,10.16,0.0,-0.01,-0.01
40.228519,29.008993,10.35,-1.37,-2.32,9.17,0.02,-0.01,-0.0
40.228519,29.008993,10.35,-0.09,-0.74,11.9,0.01,-0.0,-0.01
40.228519,29.008993,10.35,-0.01,-1.48,10.95,0.01,0.01,-0.0
40.228485,29.008991,14.2,-0.42,-1.23,9.62,0.02,0.03,-0.01
40.228485,29.008991,14.2,0.65,-1.35,11.0,0.02,-0.0,-0.0
40.228443,29.008991,18.48,-0.55,-1.19,10.25,-0.0,-0.0,-0.0
40.228443,29.008991,18.48,0.09,-0.96,10.0,0.07,0.0,0.01
40.228389,29.008991,22.71,-0.54,-0.27,12.33,-0.0,0.01,-0.01
40.228389,29.008991,22.71,1.03,-0.74,7.3,0.07,0.02,0.0
40.228389,29.008991,22.71,0.09,-0.93,8.96,0.05,0.03,-0.02
40.228389,29.008991,22.71,0.29,-1.92,9.99,-0.01,-0.01,-0.03
40.228389,29.008991,22.71,-0.46,-0.79,10.59,0.01,0.03,-0.0
40.228389,29.008991,22.71,-0.97,-1.66,10.3,0.01,0.03,-0.01
40.228389,29.008991,22.71,-0.42,-0.89,9.87,0.0,-0.0,-0.02
40.228389,29.008991,22.71,-0.36,-0.6,8.8,0.01,0.02,-0.0
40.228389,29.008991,22.71,-0.47,-0.94,9.9,-0.02,-0.01,-0.01
40.228389,29.008991,22.71,-0.46,-0.29,10.57,-0.01,0.0,-0.01
40.228389,29.008991,22.71,0.26,-0.33,11.37,0.0,-0.02,-0.02
40.228389,29.008991,22.71,-0.5,0.01,10.56,0.0,-0.0,-0.0
40.228389,29.008991,22.71,0.1,-0.63,8.62,0.01,-0.02,-0.01
40.228389,29.008991,22.71,-0.87,0.56,9.2,0.0,0.03,-0.01
40.228389,29.008991,22.71,-0.21,0.03,6.89,-0.02,-0.0,-0.0
40.228389,29.008991,22.71,-0.77,-0.13,9.95,0.01,-0.01,-0.02
40.228389,29.008991,22.71,-0.62,-0.19,10.31,-0.01,-0.02,-0.02
40.22826,29.008993,26.54,-0.27,0.18,10.63,0.02,-0.01,-0.02
40.22826,29.008993,26.54,-1.16,-0.13,9.7,0.01,-0.05,-0.02
40.22826,29.008993,26.54,-0.77,-1.15,7.87,-0.04,-0.01,-0.0
40.22826,29.008993,26.54,-0.76,0.23,8.56,0.02,0.01,-0.01
40.22826,29.008993,26.54,-0.67,0.52,9.49,0.04,0.01,-0.02
40.22826,29.008993,26.54,-0.16,-0.26,10.32,0.03,0.01,-0.02
40.22826,29.008993,26.54,-0.66,-0.11,10.17,0.0,0.01,-0.01
40.228195,29.008995,25.78,-0.64,0.28,10.2,0.03,0.01,-0.02
40.228195,29.008995,25.78,-0.24,0.54,10.21,0.03,0.0,-0.02
40.228195,29.008995,25.78,-0.17,0.0,10.34,0.02,-0.0,-0.03
40.228195,29.008995,25.78,-0.15,0.51,9.85,0.02,0.0,-0.02
40.228195,29.008995,25.78,-0.35,0.8,8.76,0.02,0.0,-0.02
40.228195,29.008995,25.78,-0.45,0.41,10.34,0.02,0.02,-0.03
40.228195,29.008995,25.78,-0.52,0.37,10.58,-0.0,0.02,-0.03
40.228195,29.008995,25.78,-0.91,-0.53,10.56,-0.01,-0.01,-0.04
40.228195,29.008995,25.78,-0.41,0.87,10.89,-0.02,0.01,-0.03
40.228065,29.008993,25.26,-0.45,-0.03,8.86,0.01,-0.01,-0.04
40.227779,29.009111,10.85,1.36,-0.29,9.73,-0.01,-0.0,0.39
40.227817,29.009183,13.74,1.68,-0.76,9.78,-0.0,0.04,0.31
40.227817,29.009183,13.74,1.77,-0.84,10.14,-0.03,0.04,0.31
40.227817,29.009183,13.74,1.92,-0.69,10.5,-0.01,0.03,0.29
40.227905,29.009223,21.48,0.31,-1.06,11.02,0.01,0.04,0.11
40.227905,29.009223,21.48,0.75,-1.26,10.02,0.0,0.04,0.1
40.227905,29.009223,21.48,-0.08,-1.48,10.07,0.02,0.02,0.09
40.227905,29.009223,21.48,0.28,-0.7,10.14,0.0,0.01,0.07
40.227905,29.009223,21.48,-0.09,-1.17,9.1,0.0,0.01,0.07
40.227905,29.009223,21.48,0.27,-0.76,9.81,0.02,0.0,0.06
40.227905,29.009223,21.48,0.07,-1.13,10.94,0.02,0.0,0.04
40.227966,29.009223,25.0,-0.08,-1.53,10.12,-0.02,0.01,0.01
40.227966,29.009223,25.0,-0.54,-1.66,11.03,0.04,0.02,0.01
40.227966,29.009223,25.0,0.39,-0.99,8.93,0.03,0.03,-0.01
40.227966,29.009223,25.0,-0.38,-1.8,9.33,-0.01,0.0,-0.01
40.227966,29.009223,25.0,-0.29,-0.65,10.65,0.02,0.01,0.01
40.227966,29.009223,25.0,0.64,-1.6,7.9,0.02,-0.01,0.0
40.227966,29.009223,25.0,-0.48,-0.85,12.07,0.0,0.01,-0.0
40.227966,29.009223,25.0,0.28,-2.08,7.26,0.01,-0.02,0.0
40.227966,29.009223,25.0,-0.92,-1.71,10.41,-0.02,-0.0,-0.01
40.227966,29.009223,25.0,-0.11,-1.15,11.04,-0.01,0.01,-0.01
40.228031,29.009223,27.56,-0.18,-1.3,9.01,-0.0,-0.01,0.01
40.228031,29.009223,27.56,0.69,-0.85,9.99,0.01,-0.01,0.0
40.228031,29.009223,27.56,-0.21,-0.75,11.31,0.0,0.02,-0.0
40.228031,29.009223,27.56,-0.04,-1.09,9.17,0.01,0.02,-0.0
40.228031,29.009223,27.56,-0.26,-1.47,8.78,0.01,0.02,-0.02
40.228031,29.009223,27.56,-0.34,-1.39,9.12,0.0,0.0,-0.01
40.228031,29.009223,27.56,-0.11,-1.51,9.91,-0.0,0.01,-0.02
40.228107,29.009223,31.3,-0.32,-1.0,12.0,0.02,0.0,-0.01
40.228191,29.009223,34.52,-0.12,-1.03,10.08,0.0,-0.01,-0.01
40.228191,29.009223,34.52,-0.92,-1.05,10.77,0.02,0.0,0.0
40.228191,29.009223,34.52,0.19,-1.12,10.83,-0.02,-0.01,-0.02
40.228191,29.009223,34.52,-0.45,-0.98,10.47,0.01,0.0,-0.0
40.228191,29.009223,34.52,-0.89,-1.27,10.83,0.01,0.01,-0.01
40.228279,29.009223,37.65,-0.08,-1.04,9.88,0.02,-0.0,-0.01
40.228279,29.009223,37.65,0.52,-0.53,9.84,0.0,-0.01,-0.01
40.228279,29.009223,37.65,-0.38,-1.37,9.85,0.0,-0.0,-0.01
40.228382,29.009223,40.76,-0.02,-0.79,9.48,0.0,0.01,-0.0
40.228382,29.009223,40.76,-0.13,-0.8,10.59,0.01,-0.01,0.0
40.228382,29.009223,40.76,-0.23,-0.74,9.54,0.03,-0.01,-0.0
40.228488,29.009225,43.13,0.24,-0.51,9.8,0.0,0.0,-0.01
40.228603,29.009225,44.74,-0.49,-0.69,10.61,0.02,0.02,-0.0
40.228603,29.009225,44.74,0.17,-0.93,9.97,0.01,0.01,-0.01
40.228603,29.009225,44.74,-0.39,-0.81,8.87,0.03,0.0,-0.0
40.228717,29.009225,45.71,-0.26,-0.62,10.59,0.03,-0.01,-0.0
40.228717,29.009225,45.71,-0.18,-0.3,11.1,0.0,0.01,-0.02
40.228839,29.009225,47.87,-0.7,-0.21,10.51,0.02,0.01,-0.01
40.228839,29.009225,47.87,-0.39,-0.3,11.75,-0.0,0.01,-0.0
40.228839,29.009225,47.87,-0.54,-0.51,10.93,0.01,0.01,-0.01
40.228839,29.009225,47.87,-0.17,-0.34,11.26,0.0,0.01,-0.01
40.228839,29.009225,47.87,-0.32,-0.18,10.86,0.02,0.01,-0.02
40.228839,29.009225,47.87,-0.58,-0.26,10.49,0.02,0.02,-0.01
40.228839,29.009225,47.87,-0.51,-0.33,11.0,0.03,0.01,-0.01
40.228961,29.009225,48.21,-0.08,-0.68,10.4,-0.01,-0.01,-0.02
40.228961,29.009225,48.21,-0.15,-0.03,8.66,0.02,0.0,-0.02
40.228961,29.009225,48.21,-0.41,-0.01,10.44,0.02,0.01,0.0
40.228961,29.009225,48.21,-0.03,-0.75,10.75,0.01,0.0,-0.01
40.229084,29.009225,48.74,-0.35,-0.33,9.79,0.03,0.0,-0.02
40.229084,29.009225,48.74,-0.64,-0.47,10.46,0.02,-0.01,-0.01
40.229084,29.009225,48.74,-0.48,-0.42,11.61,-0.01,-0.01,-0.02
40.229084,29.009225,48.74,-0.75,-0.34,10.39,-0.01,-0.0,-0.02
40.229206,29.009225,49.5,-1.19,-0.13,10.87,0.03,0.01,-0.01
40.229206,29.009225,49.5,-0.32,-0.3,10.21,0.02,-0.01,-0.02
40.229206,29.009225,49.5,-0.81,-0.07,9.83,0.0,0.02,-0.01
40.229206,29.009225,49.5,-0.72,0.02,11.17,0.02,0.02,-0.01
40.229331,29.009227,49.21,-0.83,-0.08,9.19,-0.01,0.0,-0.01
40.229331,29.009227,49.21,-0.14,0.41,10.4,0.01,0.0,-0.01
40.229579,29.009235,48.73,-0.76,0.18,10.81,0.01,0.01,-0.01
40.229579,29.009235,48.73,-0.86,0.05,10.07,0.01,0.01,-0.02
40.229701,29.009237,47.23,-1.16,0.11,11.13,0.01,0.0,-0.01
40.229701,29.009237,47.23,0.16,0.37,10.12,0.0,0.01,-0.01
40.229701,29.009237,47.23,-1.35,-0.14,11.54,0.02,0.02,-0.01
40.229701,29.009237,47.23,-0.08,-0.29,9.13,-0.01,-0.0,-0.01
40.229701,29.009237,47.23,-0.26,-0.46,10.79,0.02,-0.02,-0.0
40.229701,29.009237,47.23,-0.24,0.34,10.65,0.02,0.0,-0.0
40.229701,29.009237,47.23,-0.85,0.23,9.93,0.02,-0.01,0.0
40.22982,29.009239,44.97,-0.03,0.25,10.94,-0.01,-0.03,-0.01
40.22982,29.009239,44.97,-0.44,0.31,10.31,-0.01,-0.02,-0.01
40.22982,29.009239,44.97,-0.13,-0.16,9.96,0.0,-0.03,0.0
40.229934,29.009244,45.04,-0.8,-0.0,9.03,0.01,0.0,-0.01
40.229934,29.009244,45.04,0.27,0.12,10.54,-0.01,-0.02,0.0
40.229934,29.009244,45.04,-0.29,-0.47,9.01,0.03,-0.01,-0.01
40.229934,29.009244,45.04,0.36,0.24,8.56,-0.01,-0.02,0.0
40.229934,29.009244,45.04,0.19,-0.01,10.55,0.0,-0.02,-0.01
40.230049,29.009246,43.87,-0.15,-0.2,10.11,0.0,0.02,-0.0
40.230049,29.009246,43.87,-0.41,0.12,10.55,-0.01,-0.0,-0.01
40.230049,29.009246,43.87,0.01,-0.04,10.73,0.0,0.0,-0.0
40.230159,29.00925,43.24,-0.3,0.18,9.9,0.01,0.01,-0.01
40.230159,29.00925,43.24,0.14,0.11,10.42,-0.02,0.01,-0.01
40.230159,29.00925,43.24,-0.42,-0.12,9.84,0.01,0.01,-0.01
40.230159,29.00925,43.24,-0.32,0.05,9.97,0.01,0.01,-0.01
40.230159,29.00925,43.24,0.02,0.28,10.07,-0.0,0.01,-0.0
40.230266,29.009252,42.52,0.1,0.23,10.09,0.02,0.0,-0.0
40.230266,29.009252,42.52,-0.1,0.31,9.04,0.04,-0.0,-0.0
40.230266,29.009252,42.52,-0.17,-0.28,9.56,0.02,-0.01,-0.02
40.230266,29.009252,42.52,-0.76,0.15,9.09,-0.01,0.01,-0.01
40.230266,29.009252,42.52,-0.29,0.17,10.25,-0.0,-0.01,-0.01
40.230266,29.009252,42.52,-0.33,0.65,9.85,0.0,-0.01,-0.02
40.230373,29.009256,40.86,-0.19,0.42,10.24,0.03,-0.03,-0.01
40.230373,29.009256,40.86,-0.7,0.62,11.4,0.01,-0.0,-0.01
40.230373,29.009256,40.86,0.12,0.57,9.99,0.01,-0.01,-0.02
40.230373,29.009256,40.86,-0.18,0.58,10.8,0.02,-0.0,-0.01
40.230472,29.009258,39.71,-0.1,0.43,9.83,0.0,-0.02,-0.02
40.230472,29.009258,39.71,-0.67,0.07,9.14,0.01,0.01,-0.02
40.230571,29.009265,37.41,-0.47,0.46,10.61,0.0,-0.0,-0.02
40.230571,29.009265,37.41,-0.13,0.79,9.87,0.0,-0.01,-0.03
40.230655,29.009271,33.1,-0.64,0.66,9.74,0.01,0.01,-0.04
40.230655,29.009271,33.1,-0.79,0.73,10.53,0.02,0.01,-0.05
40.230731,29.009275,30.67,-0.89,0.81,10.73,0.02,0.0,-0.04
40.230731,29.009275,30.67,-0.45,0.83,10.1,0.01,-0.01,-0.05
40.231079,29.009172,11.83,1.23,0.08,9.61,-0.01,-0.01,0.34
40.230987,29.009033,17.95,0.78,-0.99,10.34,-0.02,0.01,0.17
40.230937,29.009023,19.32,0.91,-1.45,10.47,-0.02,0.0,0.13
40.230937,29.009023,19.32,0.94,-1.56,10.51,0.01,0.01,0.11
40.230884,29.009021,22.02,-0.05,-1.0,10.35,-0.0,0.02,0.01
40.230884,29.009021,22.02,-0.58,-1.34,10.19,0.01,0.01,-0.01
40.230884,29.009021,22.02,-0.37,-1.16,10.69,0.01,0.01,-0.01
40.230884,29.009021,22.02,-0.7,-1.46,10.79,0.01,0.0,-0.02
40.230884,29.009021,22.02,-0.21,-1.08,9.29,0.01,-0.0,-0.03
40.230827,29.009019,23.84,-0.35,-1.13,8.66,0.01,-0.01,-0.02
40.230827,29.009019,23.84,-0.57,-1.49,10.85,-0.01,-0.02,-0.02
40.230827,29.009019,23.84,-0.13,-0.95,9.46,0.03,0.0,-0.02
40.230827,29.009019,23.84,-0.08,-1.45,8.84,-0.01,-0.01,-0.01
40.230827,29.009019,23.84,-0.15,-0.93,11.58,-0.01,-0.0,0.01
40.230827,29.009019,23.84,0.19,-1.13,9.02,0.01,-0.01,0.01
40.230827,29.009019,23.84,-0.0,-0.62,11.18,0.03,0.0,-0.0
40.230827,29.009019,23.84,0.05,-1.48,9.33,0.02,0.0,0.01
40.230827,29.009019,23.84,-0.35,-0.92,10.52,0.0,-0.0,0.02
40.230827,29.009019,23.84,0.22,-1.31,10.23,0.01,-0.0,0.0
40.230827,29.009019,23.84,0.12,-1.07,10.8,-0.0,-0.0,0.0
40.230827,29.009019,23.84,-0.01,-1.29,10.68,0.02,0.01,0.01
40.230827,29.009019,23.84,0.33,-1.2,8.88,0.03,0.0,0.01
40.230827,29.009019,23.84,0.31,-1.02,11.02,-0.0,0.01,0.0
40.230827,29.009019,23.84,0.31,-1.29,11.79,-0.01,0.01,-0.0
40.230678,29.009017,30.13,-0.05,-1.37,9.03,0.01,0.02,0.0
40.230678,29.009017,30.13,0.05,-1.15,10.2,0.02,0.01,0.0
40.23059,29.009021,35.84,-0.08,-1.43,10.42,0.0,0.01,-0.0
40.23059,29.009021,35.84,-0.42,-1.17,11.58,0.01,-0.0,-0.01
40.23059,29.009021,35.84,-0.68,-0.94,10.54,0.02,0.01,-0.01
40.23059,29.009021,35.84,-1.19,-1.5,10.99,0.02,0.02,-0.01
40.23059,29.009021,35.84,-0.15,-1.32,8.79,0.01,0.02,-0.02
40.23059,29.009021,35.84,-0.59,-1.47,11.22,-0.02,-0.0,-0.02
40.23059,29.009021,35.84,-0.65,-1.58,9.89,0.0,0.03,-0.02
40.23059,29.009021,35.84,-0.31,-0.55,9.59,0.03,0.01,-0.03
40.23059,29.009021,35.84,-0.2,-0.85,10.49,0.02,-0.01,-0.01
40.23059,29.009021,35.84,-0.74,-1.12,10.29,0.0,-0.0,-0.02
40.230396,29.009029,40.97,-0.52,-0.7,10.36,0.02,0.01,-0.0
40.230289,29.009029,44.02,-0.01,-0.4,9.45,0.02,-0.0,-0.01
40.230178,29.009027,45.1,0.27,-0.33,9.03,-0.0,0.01,-0.01
40.230178,29.009027,45.1,-0.25,-0.62,9.94,0.01,0.02,-0.02
40.230178,29.009027,45.1,-0.13,-0.81,8.73,0.01,0.02,-0.01
40.230064,29.009029,45.41,0.14,-0.77,10.75,-0.0,-0.0,0.0
40.230064,29.009029,45.41,-0.27,-0.77,10.35,0.01,0.01,-0.01
40.230064,29.009029,45.41,0.01,-0.79,10.18,0.0,-0.01,-0.01
40.230064,29.009029,45.41,-0.22,-0.66,9.62,-0.01,-0.01,-0.01
40.230064,29.009029,45.41,-0.5,-0.3,10.31,0.04,-0.0,-0.0
40.229949,29.009031,46.15,-0.14,-1.01,10.01,-0.01,-0.01,-0.01
40.229949,29.009031,46.15,-0.21,-1.19,10.85,-0.01,-0.03,-0.02
40.229949,29.009031,46.15,0.0,-0.44,11.04,-0.01,-0.01,-0.0
40.229949,29.009031,46.15,0.35,-0.77,10.07,0.01,-0.01,-0.01
40.229831,29.009031,47.28,-0.12,-0.41,10.33,-0.0,0.0,-0.01
40.229831,29.009031,47.28,-0.03,-0.14,10.67,-0.01,-0.0,-0.01
40.229713,29.009033,47.87,-0.31,-0.06,9.91,0.02,-0.01,-0.01
40.229713,29.009033,47.87,-0.43,-0.44,9.99,0.0,-0.01,-0.01
40.229713,29.009033,47.87,-0.12,0.54,10.22,0.01,-0.0,-0.0
40.229587,29.009031,49.1,0.22,-0.3,9.71,-0.02,0.0,-0.01
40.229587,29.009031,49.1,-0.58,-0.34,9.91,0.02,0.01,-0.01
40.229461,29.009029,48.47,0.19,-0.35,9.63,0.01,0.01,-0.01
40.229461,29.009029,48.47,0.06,0.04,9.0,-0.0,0.03,-0.0
40.229461,29.009029,48.47,-0.21,-0.41,9.13,0.01,0.01,0.0
40.229339,29.009033,49.12,-0.41,-0.4,10.24,0.02,-0.01,-0.01
40.229339,29.009033,49.12,-0.37,0.2,10.35,0.02,-0.01,-0.01
40.229339,29.009033,49.12,0.51,0.27,9.52,0.0,-0.03,-0.0
40.229339,29.009033,49.12,-0.69,0.03,9.92,0.01,0.01,-0.0
40.229221,29.009042,47.95,-0.59,0.16,12.1,0.03,-0.0,-0.0
40.229221,29.009042,47.95,-0.25,0.24,11.01,0.0,-0.0,-0.02
40.229221,29.009042,47.95,-0.18,0.08,9.57,0.02,-0.01,-0.0
40.229221,29.009042,47.95,-0.37,0.14,10.13,0.02,-0.0,-0.01
40.229221,29.009042,47.95,-0.66,0.47,12.38,0.01,0.02,-0.01
40.229103,29.009044,45.28,-0.56,-0.35,9.24,0.01,0.0,-0.02
40.229103,29.009044,45.28,-0.27,-0.27,9.08,0.01,0.0,-0.01
40.229103,29.009044,45.28,-0.57,-0.12,9.71,0.01,0.01,-0.02
40.229103,29.009044,45.28,-0.03,0.44,10.43,-0.01,-0.0,-0.02
40.229103,29.009044,45.28,-0.74,0.51,11.11,-0.01,0.03,-0.01
40.228988,29.00904,45.26,-0.42,1.16,9.8,0.02,0.0,-0.01
40.228988,29.00904,45.26,-0.22,0.53,10.55,0.02,0.01,-0.02
40.228988,29.00904,45.26,0.87,2.77,8.55,-0.0,-0.0,-0.0
40.228988,29.00904,45.26,0.02,1.47,10.6,0.03,0.02,-0.01
40.228988,29.00904,45.26,-0.76,2.24,12.62,-0.02,-0.01,-0.01
40.228988,29.00904,45.26,0.21,2.51,10.35,-0.01,-0.0,0.0
40.228988,29.00904,45.26,0.18,1.19,9.64,-0.03,-0.01,-0.01
40.228988,29.00904,45.26,-0.71,1.6,9.33,0.0,-0.01,0.0
40.228988,29.00904,45.26,-0.11,2.02,9.58,0.02,-0.02,-0.01
40.228878,29.00904,42.97,-0.1,2.31,10.24,-0.01,-0.04,-0.01
40.228878,29.00904,42.97,-0.43,1.71,11.63,0.01,-0.0,-0.01
40.228878,29.00904,42.97,-0.66,2.24,11.62,-0.01,-0.0,-0.01
40.228878,29.00904,42.97,-1.26,2.32,11.37,0.01,0.01,0.0
40.228878,29.00904,42.97,-0.86,2.21,8.85,-0.0,0.0,-0.01
40.228878,29.00904,42.97,-1.14,2.05,10.9,0.0,0.0,-0.02
40.228878,29.00904,42.97,-0.56,1.92,11.78,0.01,0.01,-0.0
40.228878,29.00904,42.97,-1.13,2.94,11.33,0.02,0.0,-0.01
40.228786,29.00904,34.95,-0.04,2.39,10.65,0.02,-0.01,-0.01
40.228786,29.00904,34.95,-1.0,2.26,9.96,-0.0,-0.02,-0.02
40.228786,29.00904,34.95,0.12,2.32,9.91,0.04,-0.0,-0.0
40.228786,29.00904,34.95,-0.84,1.91,10.53,-0.02,-0.01,-0.02
40.228786,29.00904,34.95,-0.19,2.23,9.11,0.02,-0.0,-0.01
40.228786,29.00904,34.95,-0.37,2.72,9.44,-0.03,0.01,-0.01
40.228786,29.00904,34.95,-0.09,1.72,9.68,0.0,-0.01,-0.01
40.228786,29.00904,34.95,-0.47,2.14,11.14,0.03,0.0,-0.0
40.228786,29.00904,34.95,-0.43,1.92,10.84,0.0,0.01,-0.01
40.228786,29.00904,34.95,-1.05,2.03,11.1,0.02,-0.0,-0.01
40.228786,29.00904,34.95,-0.49,1.7,9.52,0.01,-0.01,-0.0
40.22871,29.009044,34.95,-0.72,2.15,8.64,0.02,0.01,-0.01
40.228656,29.009044,19.95,-0.14,2.25,10.89,0.0,-0.0,-0.01
40.228622,29.009046,10.78,-0.28,1.23,10.07,0.0,0.0,-0.01
40.228603,29.009046,4.33,-0.22,0.09,10.15,0.0,0.0,-0.01
40.228603,29.009046,4.33,-0.29,-0.01,10.06,0.01,0.01,-0.01
40.228595,29.009044,2.57,-0.27,-0.68,10.26,0.01,0.0,-0.02
40.228595,29.009044,2.57,-0.21,-0.85,10.17,0.0,-0.0,-0.0
40.228595,29.009044,2.57,-0.26,-1.0,10.15,0.0,-0.01,-0.01
40.228557,29.009042,8.11,-0.26,-0.93,8.77,0.04,0.02,-0.0
40.22853,29.009044,11.07,0.33,-1.26,8.29,0.01,0.02,-0.0
40.22853,29.009044,11.07,-0.5,-1.19,9.32,0.01,-0.0,-0.02
40.228401,29.009046,20.74,0.28,-0.44,9.36,0.04,0.02,-0.01
40.228401,29.009046,20.74,-1.15,-0.74,9.16,0.05,0.03,-0.01
40.228401,29.009046,20.74,-0.86,-0.87,10.74,-0.0,0.01,-0.02
40.228401,29.009046,20.74,-0.19,-0.47,11.2,0.03,-0.0,-0.0
40.228343,29.009042,22.17,-0.23,-0.19,10.54,0.02,0.01,-0.0
40.228343,29.009042,22.17,-0.34,-0.09,10.67,-0.0,0.0,-0.01
40.228343,29.009042,22.17,-0.3,-0.19,9.72,0.01,0.01,-0.01
40.228343,29.009042,22.17,-0.65,-0.18,9.37,-0.02,-0.01,-0.01
40.228343,29.009042,22.17,-0.1,0.13,10.82,0.01,-0.01,-0.0
40.228282,29.00904,23.84,0.43,-0.28,8.72,-0.01,-0.04,-0.01
40.228282,29.00904,23.84,-1.3,0.5,12.1,0.03,0.04,-0.0
40.228282,29.00904,23.84,-0.17,-0.56,9.13,-0.01,-0.02,-0.02
40.228225,29.009038,23.28,-0.46,-0.09,9.93,-0.0,0.01,-0.01
40.228168,29.009033,22.56,-0.15,-0.16,9.96,0.01,0.01,-0.02
40.228168,29.009033,22.56,-0.19,-0.05,9.57,0.01,0.0,-0.02
40.228168,29.009033,22.56,-0.09,-0.09,10.6,0.02,0.0,-0.02
40.228168,29.009033,22.56,-0.39,0.0,10.13,0.01,0.0,-0.02
40.228168,29.009033,22.56,-1.04,-0.08,10.36,0.0,0.01,-0.03
40.228168,29.009033,22.56,-0.26,-0.15,10.44,0.02,-0.0,-0.02
40.228168,29.009033,22.56,-1.44,-0.18,11.83,0.0,0.01,-0.03
40.228111,29.009029,22.28,-1.0,0.14,9.11,0.0,0.01,-0.03
40.228111,29.009029,22.28,-0.74,-0.4,10.05,0.0,0.01,-0.04
40.228111,29.009029,22.28,-1.03,-0.22,10.11,0.04,-0.01,-0.04
40.227806,29.009237,14.98,1.26,-0.79,9.53,-0.0,-0.04,0.28
40.227851,29.009256,19.59,0.98,-0.93,10.63,-0.02,0.05,0.22
40.227851,29.009256,19.59,0.83,-1.18,10.43,-0.04,0.05,0.18
40.227851,29.009256,19.59,1.33,-1.19,10.01,-0.01,0.03,0.16
40.227851,29.009256,19.59,0.81,-1.31,10.8,-0.0,0.02,0.15
40.227851,29.009256,19.59,0.8,-1.18,9.91,-0.01,0.02,0.13
40.227851,29.009256,19.59,0.25,-1.35,10.42,0.01,0.01,0.11
40.227851,29.009256,19.59,-0.03,-1.4,10.64,0.0,0.03,0.1
40.227901,29.009262,21.34,0.72,-1.3,9.78,-0.0,0.0,0.08
40.227901,29.009262,21.34,0.39,-1.09,11.07,0.0,0.01,0.07
40.227901,29.009262,21.34,0.1,-1.34,10.15,0.03,0.04,0.06
40.227901,29.009262,21.34,0.18,-1.36,8.51,0.0,0.02,0.03
40.227901,29.009262,21.34,-0.18,-1.77,9.48,-0.01,0.0,0.02
40.227901,29.009262,21.34,-0.39,-1.38,11.4,0.01,0.02,0.02
40.227901,29.009262,21.34,0.0,-1.04,8.95,0.02,0.02,0.0
40.227901,29.009262,21.34,-0.33,-1.13,9.93,-0.01,-0.01,-0.0
40.227901,29.009262,21.34,-0.05,-1.56,10.34,-0.01,-0.02,0.0
40.227901,29.009262,21.34,-0.15,-0.94,9.56,0.03,0.02,0.01
40.227901,29.009262,21.34,0.06,-0.95,9.5,0.03,0.01,0.0
40.227901,29.009262,21.34,-0.25,-0.64,11.57,0.01,0.02,0.01
40.227962,29.009258,25.45,0.06,-1.9,8.54,0.02,-0.01,-0.01
40.227962,29.009258,25.45,-0.67,-1.39,10.37,-0.02,-0.01,0.01
40.227962,29.009258,25.45,0.1,-1.38,9.03,0.02,-0.01,0.01
40.227962,29.009258,25.45,-0.16,-1.12,11.88,0.0,-0.01,-0.0
40.227962,29.009258,25.45,0.73,-0.98,9.78,0.0,0.0,0.01
40.228038,29.009256,30.61,0.33,-1.14,10.22,0.0,0.01,-0.01
40.228038,29.009256,30.61,-0.15,-0.93,10.54,0.02,-0.0,-0.01
40.228038,29.009256,30.61,-0.23,-0.95,9.58,0.0,-0.0,-0.01
40.228118,29.009254,33.93,0.46,-1.32,9.56,-0.0,-0.01,-0.03
40.228118,29.009254,33.93,-0.44,-1.41,10.88,0.01,0.02,-0.03
40.228118,29.009254,33.93,-0.06,-0.96,8.88,0.03,0.01,-0.03
40.228221,29.009256,40.41,-0.8,-1.3,11.01,0.0,0.01,-0.02
40.228221,29.009256,40.41,-0.41,-0.96,10.18,0.02,-0.01,-0.0
40.228221,29.009256,40.41,0.11,-1.28,9.82,0.03,-0.02,-0.02
40.228221,29.009256,40.41,0.17,-0.86,10.42,0.01,-0.01,-0.01
40.228221,29.009256,40.41,0.08,-1.12,10.34,-0.0,0.02,-0.01
40.228324,29.009254,43.11,-0.33,-0.74,10.09,0.03,-0.0,0.0
40.228427,29.009258,41.11,0.17,-1.2,9.68,-0.01,-0.01,-0.01
40.228427,29.009258,41.11,-0.03,-0.37,10.01,0.02,0.01,-0.0
40.228427,29.009258,41.11,-0.38,-0.8,10.37,0.01,-0.0,-0.0
40.228427,29.009258,41.11,-0.34,-0.23,10.33,0.02,-0.0,-0.0
40.228546,29.009256,47.17,0.21,-1.1,9.71,0.01,0.01,-0.0
40.228546,29.009256,47.17,0.3,-0.67,8.52,-0.0,0.01,-0.01
40.228546,29.009256,47.17,-0.41,-0.62,11.25,-0.0,0.0,-0.01
40.228668,29.009256,48.95,-0.81,-0.51,9.68,0.0,-0.01,-0.01
40.228668,29.009256,48.95,-0.16,-0.57,10.78,0.01,-0.02,-0.01
40.228668,29.009256,48.95,-0.33,-0.61,10.31,0.01,-0.01,-0.01
40.228668,29.009256,48.95,-0.1,0.12,11.35,-0.01,-0.02,-0.01
40.228668,29.009256,48.95,-0.79,-0.23,9.38,0.02,0.0,-0.02
40.228794,29.009256,50.45,-0.04,0.2,9.82,0.0,0.0,-0.01
40.228794,29.009256,50.45,0.32,0.24,9.87,-0.01,0.0,-0.01
40.228794,29.009256,50.45,-0.31,-0.18,10.69,0.0,0.01,-0.01
40.228919,29.009254,50.12,0.03,-0.33,9.9,0.01,0.01,-0.01
40.228919,29.009254,50.12,0.09,0.11,11.15,-0.02,-0.03,-0.01
40.228919,29.009254,50.12,0.03,-0.2,10.32,-0.02,-0.01,-0.01
40.228919,29.009254,50.12,-0.57,-0.19,9.14,-0.01,-0.02,-0.01
40.229045,29.009254,49.34,-0.75,-0.12,11.08,0.01,0.01,-0.01
40.229045,29.009254,49.34,-0.65,0.14,11.19,0.04,0.02,-0.01
40.229045,29.009254,49.34,-0.41,0.11,11.32,-0.01,-0.01,-0.01
40.229045,29.009254,49.34,-0.49,-0.49,10.69,0.01,0.01,-0.01
40.229167,29.009254,48.5,-0.0,-0.24,10.76,-0.0,0.01,-0.01
40.229167,29.009254,48.5,-0.67,0.26,10.09,0.03,0.01,-0.01
40.229167,29.009254,48.5,-0.69,-0.19,11.25,0.01,-0.0,-0.01
40.22929,29.009254,47.65,-0.52,-0.02,10.13,0.01,0.0,-0.02
40.22929,29.009254,47.65,-1.16,-0.07,10.87,-0.01,0.01,-0.02
40.22929,29.009254,47.65,-1.0,0.2,11.26,-0.01,-0.0,-0.01
40.229526,29.009256,46.19,-0.37,-0.24,9.85,0.03,-0.01,-0.02
