Latitude,Longitude,Speed,AccelX,AccelY,AccelZ,GyroX,GyroY,GyroZ,Timestamp,Speed_m/s,Kinetic_Energy,Total_Acceleration
40.232429,29.009088,9.69,0.77,-0.59,9.46,0.1,-0.07,0.37,2024-05-03 14:00:24.140,2.691666666666667,23546.47569444445,9.50960567005804
40.232429,29.009088,9.69,0.51,-0.2,8.14,-0.08,-0.04,0.37,2024-05-03 14:00:25.140,2.691666666666667,23546.47569444445,8.15841283584007
40.232429,29.009088,9.69,1.0,-0.34,10.54,-0.08,0.02,0.37,2024-05-03 14:00:26.140,2.691666666666667,23546.47569444445,10.59279000075051
40.232395,29.009082,14.13,0.48,-0.58,10.24,-0.0,0.01,0.33,2024-05-03 14:00:27.140,3.925,50068.28124999999,10.26763848214379
40.232395,29.009082,14.13,0.09,-1.22,10.05,-0.04,0.0,0.23,2024-05-03 14:00:28.140,3.925,50068.28124999999,10.124178979058007
40.232395,29.009082,14.13,-0.0,-0.66,10.5,-0.05,0.03,0.22,2024-05-03 14:00:29.140,3.925,50068.28124999999,10.520722408656166
40.232395,29.009082,14.13,0.02,-0.88,9.92,-0.01,0.01,0.27,2024-05-03 14:00:30.140,3.925,50068.28124999999,9.958975850959776
40.232395,29.009082,14.13,-0.12,-1.15,9.95,0.01,0.03,0.24,2024-05-03 14:00:31.140,3.925,50068.28124999999,10.016955625338468
40.232395,29.009082,14.13,-0.31,-1.18,10.32,-0.02,0.03,0.21,2024-05-03 14:00:32.140,3.925,50068.28124999999,10.39186701223606
40.232395,29.009082,14.13,-0.54,-1.02,10.38,-0.04,0.02,0.19,2024-05-03 14:00:33.140,3.925,50068.28124999999,10.443964764398624
40.232395,29.009082,14.13,-0.58,-1.44,9.43,0.02,0.04,0.17,2024-05-03 14:00:34.140,3.925,50068.28124999999,9.556929423198646
40.23236,29.009084,15.17,-0.8,-1.3,10.15,0.03,0.02,0.12,2024-05-03 14:00:35.140,4.213888888888889,57709.793595679,10.264136593011612
40.23236,29.009084,15.17,-0.52,-1.65,10.21,0.01,0.01,0.02,2024-05-03 14:00:36.140,4.213888888888889,57709.793595679,10.355529923668804
40.23236,29.009084,15.17,-1.22,-1.49,10.11,0.01,0.02,-0.0,2024-05-03 14:00:37.140,4.213888888888889,57709.793595679,10.291773413751393
40.232322,29.009094,18.08,-1.13,-1.78,9.56,0.02,0.02,-0.04,2024-05-03 14:00:38.140,5.022222222222222,81973.82716049382,9.789734419278187
40.232322,29.009094,18.08,-1.45,-1.91,8.63,0.01,0.04,-0.06,2024-05-03 14:00:39.140,5.022222222222222,81973.82716049382,8.956980518009404
40.232322,29.009094,18.08,-1.53,-1.58,10.27,-0.0,0.01,-0.06,2024-05-03 14:00:40.140,5.022222222222222,81973.82716049382,10.502866275450716
40.232269,29.009098,22.98,-1.07,-1.83,8.74,-0.01,-0.03,-0.05,2024-05-03 14:00:41.140,6.383333333333334,132427.56944444447,8.993408697485066
40.232269,29.009098,22.98,-0.65,-1.55,10.11,0.04,-0.04,-0.05,2024-05-03 14:00:42.140,6.383333333333334,132427.56944444447,10.248760900713803
40.232269,29.009098,22.98,-0.64,-1.24,9.9,0.03,-0.04,-0.03,2024-05-03 14:00:43.140,6.383333333333334,132427.56944444447,9.997859770970985
40.232269,29.009098,22.98,-0.23,-2.36,8.95,-0.02,-0.02,-0.01,2024-05-03 14:00:44.140,6.383333333333334,132427.56944444447,9.258779617206578
40.232269,29.009098,22.98,-0.35,-1.86,8.97,0.06,-0.03,0.0,2024-05-03 14:00:45.140,6.383333333333334,132427.56944444447,9.167496932096569
40.232269,29.009098,22.98,-0.63,-1.08,10.32,0.02,0.0,-0.01,2024-05-03 14:00:46.140,6.383333333333334,132427.56944444447,10.395465357548934
40.232269,29.009098,22.98,-0.58,-1.75,9.3,0.03,-0.0,0.01,2024-05-03 14:00:47.140,6.383333333333334,132427.56944444447,9.480975688187371
40.232269,29.009098,22.98,-0.52,-1.35,10.5,0.05,-0.01,0.02,2024-05-03 14:00:48.140,6.383333333333334,132427.56944444447,10.599193365534946
40.232269,29.009098,22.98,-0.88,-0.91,11.26,0.01,-0.0,0.01,2024-05-03 14:00:49.140,6.383333333333334,132427.56944444447,11.330935530661181
40.232208,29.009099,26.91,-0.44,-2.34,8.25,-0.01,0.0,0.01,2024-05-03 14:00:50.140,7.475,181595.78124999997,8.586716485362725
40.232208,29.009099,26.91,-0.81,-0.62,10.41,0.02,-0.01,-0.0,2024-05-03 14:00:51.140,7.475,181595.78124999997,10.459856595575294
40.232208,29.009099,26.91,-0.83,-1.52,8.61,0.01,0.03,-0.03,2024-05-03 14:00:52.140,7.475,181595.78124999997,8.782448405769316
40.232208,29.009099,26.91,-0.79,-1.21,10.63,0.02,-0.01,-0.01,2024-05-03 14:00:53.140,7.475,181595.78124999997,10.72777236894967
40.232208,29.009099,26.91,-0.53,-1.42,11.37,-0.07,-0.01,-0.03,2024-05-03 14:00:54.140,7.475,181595.78124999997,11.470579758669567
40.232128,29.009101,31.08,-0.5,-1.23,11.2,-0.0,0.03,0.0,2024-05-03 14:00:55.140,8.633333333333333,242236.9444444444,11.278426308665583
40.232128,29.009101,31.08,-1.03,-1.16,10.54,-0.02,-0.01,-0.0,2024-05-03 14:00:56.140,8.633333333333333,242236.9444444444,10.653548704539721
40.232128,29.009101,31.08,-0.31,-1.86,8.94,0.06,-0.06,-0.0,2024-05-03 14:00:57.140,8.633333333333333,242236.9444444444,9.136700717436245
40.232128,29.009101,31.08,-1.43,-1.36,11.07,-0.03,0.0,-0.01,2024-05-03 14:00:58.140,8.633333333333333,242236.9444444444,11.244527557883435
40.232128,29.009101,31.08,-0.64,-1.72,10.28,0.01,0.01,-0.01,2024-05-03 14:00:59.140,8.633333333333333,242236.9444444444,10.442528429456152
40.232128,29.009101,31.08,-1.35,-1.03,11.13,-0.04,0.03,-0.04,2024-05-03 14:01:00.140,8.633333333333333,242236.9444444444,11.258787678964374
40.232128,29.009101,31.08,-0.28,-1.67,11.21,0.02,0.04,-0.02,2024-05-03 14:01:01.140,8.633333333333333,242236.9444444444,11.337168958783318
40.232128,29.009101,31.08,-1.07,-0.98,11.32,0.01,0.04,-0.03,2024-05-03 14:01:02.140,8.633333333333333,242236.9444444444,11.41261144523899
40.23204,29.009107,35.61,-1.24,-1.08,10.25,0.02,0.02,-0.03,2024-05-03 14:01:03.140,9.891666666666667,317996.4756944445,10.381064492623095
40.23204,29.009107,35.61,-0.88,-1.65,8.63,0.07,0.0,0.03,2024-05-03 14:01:04.140,9.891666666666667,317996.4756944445,8.830277458834463
40.23204,29.009107,35.61,-1.04,-1.87,10.14,0.05,0.0,-0.03,2024-05-03 14:01:05.140,9.891666666666667,317996.4756944445,10.363305457237088
40.23204,29.009107,35.61,-1.22,-1.12,11.44,0.06,0.06,0.08,2024-05-03 14:01:06.140,9.891666666666667,317996.4756944445,11.559256031423475
40.23204,29.009107,35.61,-0.5,-1.75,8.62,0.02,-0.02,-0.0,2024-05-03 14:01:07.140,9.891666666666667,317996.4756944445,8.810045402834199
40.23204,29.009107,35.61,-0.31,-1.53,9.74,0.03,-0.04,0.01,2024-05-03 14:01:08.140,9.891666666666667,317996.4756944445,9.864309403095586
40.231945,29.009109,39.47,-0.99,-1.52,11.43,0.0,-0.05,-0.03,2024-05-03 14:01:09.140,10.963888888888889,390672.293595679,11.573046271401493
40.231945,29.009109,39.47,-1.05,-1.37,10.9,0.0,0.01,-0.02,2024-05-03 14:01:10.140,10.963888888888889,390672.293595679,11.035823485358943
40.231945,29.009109,39.47,-0.67,-1.22,10.01,0.02,0.05,-0.02,2024-05-03 14:01:11.140,10.963888888888889,390672.293595679,10.10630496274479
40.231945,29.009109,39.47,-0.34,-1.28,10.94,0.02,-0.04,0.02,2024-05-03 14:01:12.140,10.963888888888889,390672.293595679,11.019872957525417
40.231945,29.009109,39.47,-1.03,-1.89,9.07,0.0,0.04,-0.03,2024-05-03 14:01:13.140,10.963888888888889,390672.293595679,9.32190431188821
40.231945,29.009109,39.47,-0.62,-1.77,9.8,0.02,-0.04,-0.01,2024-05-03 14:01:14.140,10.963888888888889,390672.293595679,9.977840447712122
40.231945,29.009109,39.47,-0.92,-1.09,10.07,0.05,0.01,-0.04,2024-05-03 14:01:15.140,10.963888888888889,390672.293595679,10.170516211087813
40.231945,29.009109,39.47,-0.46,-1.93,9.83,0.02,-0.04,-0.02,2024-05-03 14:01:16.140,10.963888888888889,390672.293595679,10.028230152923296
40.231945,29.009109,39.47,-1.69,-0.37,13.29,-0.01,0.04,-0.02,2024-05-03 14:01:17.140,10.963888888888889,390672.293595679,13.402130427659625
40.231842,29.009109,43.37,-1.3,-1.39,9.45,0.03,-0.02,-0.02,2024-05-03 14:01:18.140,12.047222222222222,471690.58063271607,9.639740660411979
40.231842,29.009109,43.37,-0.6,-1.23,8.67,-0.02,-0.01,0.0,2024-05-03 14:01:19.140,12.047222222222222,471690.58063271607,8.7773458402868
40.231842,29.009109,43.37,-1.01,-1.74,8.59,0.03,0.02,-0.02,2024-05-03 14:01:20.140,12.047222222222222,471690.58063271607,8.822459974406232
40.231842,29.009109,43.37,-1.07,-1.52,10.7,-0.02,0.0,-0.02,2024-05-03 14:01:21.140,12.047222222222222,471690.58063271607,10.860262427768491
40.231842,29.009109,43.37,-1.0,-1.68,10.49,-0.03,-0.01,-0.03,2024-05-03 14:01:22.140,12.047222222222222,471690.58063271607,10.67063728181218
40.231842,29.009109,43.37,-0.79,-2.04,9.39,0.01,0.02,-0.02,2024-05-03 14:01:23.140,12.047222222222222,471690.58063271607,9.641462544655765
40.231842,29.009109,43.37,-0.43,-1.44,9.7,-0.0,0.01,-0.02,2024-05-03 14:01:24.140,12.047222222222222,471690.58063271607,9.8157271763227
40.231727,29.009111,46.82,-0.64,-0.72,9.71,0.05,-0.01,-0.0,2024-05-03 14:01:25.140,13.005555555555556,549719.5447530865,9.7576687789656
40.231727,29.009111,46.82,-1.25,-0.18,10.31,0.04,-0.0,-0.02,2024-05-03 14:01:26.140,13.005555555555556,549719.5447530865,10.387059256594236
40.231727,29.009111,46.82,-1.16,-0.52,9.91,-0.04,0.01,-0.02,2024-05-03 14:01:27.140,13.005555555555556,549719.5447530865,9.99120112899345
40.231727,29.009111,46.82,-1.03,0.75,11.28,0.0,-0.03,0.01,2024-05-03 14:01:28.140,13.005555555555556,549719.5447530865,11.351731145512565
40.231727,29.009111,46.82,-0.11,-0.41,9.97,-0.39,0.0,0.03,2024-05-03 14:01:29.140,13.005555555555556,549719.5447530865,9.979033019285987
40.231727,29.009111,46.82,-1.35,3.85,10.88,-0.06,-0.06,-0.1,2024-05-03 14:01:30.140,13.005555555555556,549719.5447530865,11.619784851708745
40.231727,29.009111,46.82,-0.73,1.78,11.41,0.09,-0.09,-0.19,2024-05-03 14:01:31.140,13.005555555555556,549719.5447530865,11.571058724248184
40.231727,29.009111,46.82,-0.98,0.98,10.77,-0.0,-0.01,0.05,2024-05-03 14:01:32.140,13.005555555555556,549719.5447530865,10.858807485170736
40.231727,29.009111,46.82,-0.7,1.53,11.15,0.07,-0.03,-0.0,2024-05-03 14:01:33.140,13.005555555555556,549719.5447530865,11.276231640047131
40.231727,29.009111,46.82,-1.02,1.05,9.61,-0.02,-0.02,0.0,2024-05-03 14:01:34.140,13.005555555555556,549719.5447530865,9.720853871960013
40.231727,29.009111,46.82,-1.3,0.96,9.42,0.06,0.05,0.01,2024-05-03 14:01:35.140,13.005555555555556,549719.5447530865,9.557614765201619
40.231727,29.009111,46.82,-0.62,0.67,9.95,0.0,-0.01,-0.01,2024-05-03 14:01:36.140,13.005555555555556,549719.5447530865,9.991786627025217
40.231727,29.009111,46.82,-1.09,0.82,8.38,-0.03,0.0,0.01,2024-05-03 14:01:37.140,13.005555555555556,549719.5447530865,8.490282680806336
40.231727,29.009111,46.82,-0.44,1.73,10.53,0.04,0.0,-0.0,2024-05-03 14:01:38.140,13.005555555555556,549719.5447530865,10.68023407983177
40.231727,29.009111,46.82,-0.83,1.28,9.87,0.02,0.0,-0.0,2024-05-03 14:01:39.140,13.005555555555556,549719.5447530865,9.98720181031704
40.231727,29.009111,46.82,-0.38,1.58,9.96,0.04,-0.0,0.01,2024-05-03 14:01:40.140,13.005555555555556,549719.5447530865,10.091699559539018
40.231727,29.009111,46.82,-1.26,2.07,11.61,-0.0,-0.01,0.01,2024-05-03 14:01:41.140,13.005555555555556,549719.5447530865,11.860210790706883
40.231727,29.009111,46.82,-0.66,1.98,11.33,0.03,0.04,-0.01,2024-05-03 14:01:42.140,13.005555555555556,549719.5447530865,11.520629323088214
40.231727,29.009111,46.82,-1.57,1.15,10.08,0.02,0.01,0.01,2024-05-03 14:01:43.140,13.005555555555556,549719.5447530865,10.266148255309778
40.231727,29.009111,46.82,-1.15,1.51,10.32,0.04,-0.04,0.02,2024-05-03 14:01:44.140,13.005555555555556,549719.5447530865,10.493092966327898
40.231727,29.009111,46.82,-0.33,1.81,10.4,-0.0,0.02,-0.01,2024-05-03 14:01:45.140,13.005555555555556,549719.5447530865,10.56148663777974
40.231727,29.009111,46.82,-1.42,0.88,9.88,0.04,0.03,0.01,2024-05-03 14:01:46.140,13.005555555555556,549719.5447530865,10.020239518095364
40.231727,29.009111,46.82,-1.36,1.02,10.3,0.04,-0.01,-0.01,2024-05-03 14:01:47.140,13.005555555555556,549719.5447530865,10.439348638684313
40.23151,29.009111,38.17,-0.34,1.7,9.66,0.02,-0.0,0.0,2024-05-03 14:01:48.140,10.602777777777778,365361.4139660494,9.814336452353771
40.23151,29.009111,38.17,-0.8,0.88,10.22,0.01,-0.01,0.01,2024-05-03 14:01:49.140,10.602777777777778,365361.4139660494,10.28896496252174
40.23151,29.009111,38.17,-1.31,1.4,8.95,0.02,-0.02,0.01,2024-05-03 14:01:50.140,10.602777777777778,365361.4139660494,9.153065060404629
40.23151,29.009111,38.17,-0.4,1.9,10.84,0.04,-0.02,-0.01,2024-05-03 14:01:51.140,10.602777777777778,365361.4139660494,11.012520147541162
40.23151,29.009111,38.17,-0.79,1.24,9.2,0.05,-0.01,0.01,2024-05-03 14:01:52.140,10.602777777777778,365361.4139660494,9.316742993128017
40.23151,29.009111,38.17,0.27,1.69,10.34,0.04,-0.03,0.02,2024-05-03 14:01:53.140,10.602777777777778,365361.4139660494,10.480677459019526
40.23151,29.009111,38.17,-1.24,1.1,10.45,-0.01,-0.0,-0.01,2024-05-03 14:01:54.140,10.602777777777778,365361.4139660494,10.580647428205893
40.23151,29.009111,38.17,-0.82,2.06,10.2,0.01,-0.02,0.02,2024-05-03 14:01:55.140,10.602777777777778,365361.4139660494,10.438199078385122
40.23151,29.009111,38.17,-0.44,1.04,10.22,0.01,-0.06,0.01,2024-05-03 14:01:56.140,10.602777777777778,365361.4139660494,10.282198208554433
40.23151,29.009111,38.17,-1.37,1.85,11.02,0.02,-0.04,0.0,2024-05-03 14:01:57.140,10.602777777777778,365361.4139660494,11.25787724218025
40.23151,29.009111,38.17,-0.77,1.43,10.64,0.02,-0.01,0.0,2024-05-03 14:01:58.140,10.602777777777778,365361.4139660494,10.763243005711615
40.23143,29.009113,29.39,-1.28,1.94,11.8,-0.03,0.02,-0.01,2024-05-03 14:01:59.140,8.16388888888889,216609.5158179013,12.02672025117405
40.23143,29.009113,29.39,-0.32,1.27,9.69,0.03,0.0,0.01,2024-05-03 14:02:00.140,8.16388888888889,216609.5158179013,9.778108201487647
40.23143,29.009113,29.39,-1.01,1.31,10.41,0.01,-0.01,0.01,2024-05-03 14:02:01.140,8.16388888888889,216609.5158179013,10.54060244957564
40.23143,29.009113,29.39,-0.52,1.61,11.13,-0.01,0.03,-0.01,2024-05-03 14:02:02.140,8.16388888888889,216609.5158179013,11.257859476827734
40.23143,29.009113,29.39,-1.21,1.36,10.16,-0.01,-0.01,-0.0,2024-05-03 14:02:03.140,8.16388888888889,216609.5158179013,10.321787635870058
40.23143,29.009113,29.39,-1.01,1.98,10.89,0.03,-0.0,-0.0,2024-05-03 14:02:04.140,8.16388888888889,216609.5158179013,11.114522032008395
40.23143,29.009113,29.39,-1.25,1.53,10.41,0.04,-0.01,0.0,2024-05-03 14:02:05.140,8.16388888888889,216609.5158179013,10.59582464936071
40.231372,29.009115,29.39,-1.21,1.61,10.58,0.01,-0.01,-0.0,2024-05-03 14:02:06.140,8.16388888888889,216609.5158179013,10.769986072414394
40.23133,29.009119,13.2,-0.79,1.69,10.53,0.02,-0.01,0.0,2024-05-03 14:02:07.140,3.6666666666666665,43694.44444444444,10.693974939188887
40.23133,29.009119,13.2,-0.95,0.96,10.26,0.01,-0.01,-0.01,2024-05-03 14:02:08.140,3.6666666666666665,43694.44444444444,10.348511970326943
40.23133,29.009119,13.2,-0.99,0.76,10.41,0.01,-0.01,-0.01,2024-05-03 14:02:09.140,3.6666666666666665,43694.44444444444,10.484550538768936
40.231311,29.009122,5.33,-0.76,-0.05,10.02,0.15,0.02,0.01,2024-05-03 14:02:10.140,1.4805555555555556,7124.145447530865,10.048905413028823
40.231311,29.009122,5.33,-0.42,-0.24,9.56,0.14,0.1,0.05,2024-05-03 14:02:11.140,1.4805555555555556,7124.145447530865,9.572230670016264
40.231311,29.009122,5.33,-0.82,-0.21,10.13,0.02,0.0,-0.01,2024-05-03 14:02:12.140,1.4805555555555556,7124.145447530865,10.165303733779922
40.231304,29.009122,1.41,-0.75,-0.66,10.15,0.02,-0.0,-0.03,2024-05-03 14:02:13.140,0.39166666666666666,498.55902777777777,10.199048975272156
40.231304,29.009122,1.41,-0.82,-1.42,10.36,0.01,-0.01,-0.07,2024-05-03 14:02:14.140,0.39166666666666666,498.55902777777777,10.488965630604381
40.231304,29.00912,0.93,-0.65,-1.46,10.45,0.0,-0.01,0.01,2024-05-03 14:02:15.140,0.25833333333333336,216.89236111111114,10.571499420612007
40.231304,29.00912,0.93,-0.55,-1.71,10.5,0.01,-0.01,0.01,2024-05-03 14:02:16.140,0.25833333333333336,216.89236111111114,10.652539603305872
40.231227,29.009124,15.61,-0.57,-1.65,10.28,0.01,0.02,-0.01,2024-05-03 14:02:17.140,4.336111111111111,61106.04359567902,10.427166441560237
40.231178,29.009126,20.48,-0.25,-1.92,9.21,0.02,-0.03,-0.01,2024-05-03 14:02:18.140,5.688888888888889,105181.23456790124,9.411322967574751
40.231178,29.009126,20.48,-1.18,-1.06,11.31,-0.06,0.01,-0.02,2024-05-03 14:02:19.140,5.688888888888889,105181.23456790124,11.42068736985651
40.231178,29.009126,20.48,-0.67,-1.82,8.13,0.09,-0.04,0.01,2024-05-03 14:02:20.140,5.688888888888889,105181.23456790124,8.358121798586092
40.231178,29.009126,20.48,-0.69,-1.96,6.63,0.05,-0.01,-0.01,2024-05-03 14:02:21.140,5.688888888888889,105181.23456790124,6.947992515827863
40.231121,29.009128,25.22,-0.41,-2.14,8.02,0.06,0.0,-0.02,2024-05-03 14:02:22.140,7.0055555555555555,159502.87808641975,8.31072199029663
40.231121,29.009128,25.22,-0.62,-1.16,10.06,0.06,-0.01,-0.01,2024-05-03 14:02:23.140,7.0055555555555555,159502.87808641975,10.14561974450058
40.231121,29.009128,25.22,-0.64,-2.21,10.04,-0.01,-0.02,-0.02,2024-05-03 14:02:24.140,7.0055555555555555,159502.87808641975,10.300257278340187
40.231121,29.009128,25.22,-0.53,-1.45,9.39,-0.0,0.01,-0.01,2024-05-03 14:02:25.140,7.0055555555555555,159502.87808641975,9.516065363373668
40.231121,29.009128,25.22,-1.29,-1.42,10.23,0.04,-0.0,-0.01,2024-05-03 14:02:26.140,7.0055555555555555,159502.87808641975,10.408333199893248
40.231121,29.009128,25.22,-0.8,-1.61,11.61,-0.02,0.01,-0.02,2024-05-03 14:02:27.140,7.0055555555555555,159502.87808641975,11.748370099720216
40.231121,29.009128,25.22,-0.62,-1.89,9.06,0.03,0.0,-0.01,2024-05-03 14:02:28.140,7.0055555555555555,159502.87808641975,9.275780290627846
40.231121,29.009128,25.22,-0.82,-1.59,9.19,0.03,-0.03,-0.02,2024-05-03 14:02:29.140,7.0055555555555555,159502.87808641975,9.362510347123788
40.231121,29.009128,25.22,-1.3,-1.24,10.2,-0.06,0.0,-0.03,2024-05-03 14:02:30.140,7.0055555555555555,159502.87808641975,10.357007289753154
40.231121,29.009128,25.22,-0.62,-1.12,9.96,-0.06,-0.04,-0.0,2024-05-03 14:02:31.140,7.0055555555555555,159502.87808641975,10.041932085012327
40.231048,29.009128,29.72,-0.59,-1.34,9.92,-0.06,-0.03,-0.01,2024-05-03 14:02:32.140,8.255555555555556,221501.14197530868,10.02746727743352
40.231048,29.009128,29.72,-0.56,-1.68,9.95,-0.06,-0.01,-0.0,2024-05-03 14:02:33.140,8.255555555555556,221501.14197530868,10.106359384071
40.231048,29.009128,29.72,-0.59,-1.53,10.03,0.01,-0.01,-0.01,2024-05-03 14:02:34.140,8.255555555555556,221501.14197530868,10.163163877454696
40.231048,29.009128,29.72,-0.66,-2.0,8.89,0.02,0.01,-0.02,2024-05-03 14:02:35.140,8.255555555555556,221501.14197530868,9.136065892932253
40.231048,29.009128,29.72,-0.54,-2.42,8.3,0.01,-0.02,-0.0,2024-05-03 14:02:36.140,8.255555555555556,221501.14197530868,8.662447691039757
40.231048,29.009128,29.72,-0.75,-1.56,8.76,0.03,-0.01,-0.03,2024-05-03 14:02:37.140,8.255555555555556,221501.14197530868,8.9293728783157
40.231048,29.009128,29.72,-0.71,-0.96,11.49,0.01,0.01,-0.01,2024-05-03 14:02:38.140,8.255555555555556,221501.14197530868,11.551874306795414
40.231048,29.009128,29.72,-0.68,-1.64,7.65,0.06,0.03,-0.02,2024-05-03 14:02:39.140,8.255555555555556,221501.14197530868,7.853311403478154
40.231048,29.009128,29.72,-0.59,-1.69,9.83,-0.03,-0.0,-0.01,2024-05-03 14:02:40.140,8.255555555555556,221501.14197530868,9.991651515140028
40.230968,29.009128,34.17,-1.03,-1.09,11.46,-0.06,0.04,-0.03,2024-05-03 14:02:41.140,9.491666666666667,292798.1423611111,11.557707385117517
40.230968,29.009128,34.17,-0.67,-1.92,9.56,0.01,-0.01,-0.01,2024-05-03 14:02:42.140,9.491666666666667,292798.1423611111,9.773888683630483
40.230968,29.009128,34.17,0.05,-1.82,11.13,0.07,-0.07,-0.0,2024-05-03 14:02:43.140,9.491666666666667,292798.1423611111,11.277934208001039
40.230968,29.009128,34.17,-0.91,-0.98,11.61,0.02,0.02,-0.02,2024-05-03 14:02:44.140,9.491666666666667,292798.1423611111,11.686770298076366
40.230968,29.009128,34.17,-0.39,-1.63,9.65,-0.01,0.0,-0.01,2024-05-03 14:02:45.140,9.491666666666667,292798.1423611111,9.794462721354346
40.230968,29.009128,34.17,-0.8,-1.4,9.45,0.05,0.01,-0.01,2024-05-03 14:02:46.140,9.491666666666667,292798.1423611111,9.586579160472205
40.230968,29.009128,34.17,-0.68,-1.19,10.97,0.0,0.0,-0.02,2024-05-03 14:02:47.140,9.491666666666667,292798.1423611111,11.055288327311958
40.230876,29.009128,38.02,-0.45,-1.2,10.24,0.01,0.01,-0.0,2024-05-03 14:02:48.140,10.561111111111112,362495.47067901236,10.31988856528984
40.230876,29.009128,38.02,-0.9,-1.68,9.53,-0.03,0.02,-0.01,2024-05-03 14:02:49.140,10.561111111111112,362495.47067901236,9.718708761970388
40.230876,29.009128,38.02,-0.35,-1.3,10.81,0.02,0.01,-0.01,2024-05-03 14:02:50.140,10.561111111111112,362495.47067901236,10.893511830442927
40.230876,29.009128,38.02,-0.62,-1.33,10.97,0.01,0.0,-0.01,2024-05-03 14:02:51.140,10.561111111111112,362495.47067901236,11.067709790195984
40.230876,29.009128,38.02,-0.69,-1.32,8.88,0.0,-0.02,-0.0,2024-05-03 14:02:52.140,10.561111111111112,362495.47067901236,9.004049089159833
40.230876,29.009128,38.02,-0.14,-1.83,9.72,0.06,-0.01,0.0,2024-05-03 14:02:53.140,10.561111111111112,362495.47067901236,9.89175919642204
40.230773,29.009126,42.04,-0.26,-1.67,10.06,0.02,-0.01,0.01,2024-05-03 14:02:54.140,11.677777777777777,443204.1049382716,10.200985246533788
40.230773,29.009126,42.04,-0.08,-1.64,8.9,0.0,-0.02,0.02,2024-05-03 14:02:55.140,11.677777777777777,443204.1049382716,9.050193368099933
40.230773,29.009126,42.04,-0.87,-0.66,12.41,0.01,-0.01,0.02,2024-05-03 14:02:56.140,11.677777777777777,443204.1049382716,12.457953282943391
40.230773,29.009126,42.04,-0.47,-1.83,8.72,0.02,-0.03,-0.0,2024-05-03 14:02:57.140,11.677777777777777,443204.1049382716,8.922342741679453
40.230773,29.009126,42.04,-0.08,-1.26,8.4,0.02,-0.05,0.02,2024-05-03 14:02:58.140,11.677777777777777,443204.1049382716,8.494351064089592
40.230773,29.009126,42.04,-0.91,-1.1,11.31,0.01,0.03,0.02,2024-05-03 14:02:59.140,11.677777777777777,443204.1049382716,11.399745611196769
40.230773,29.009126,42.04,-0.5,-1.3,7.89,0.06,-0.02,0.02,2024-05-03 14:03:00.140,11.677777777777777,443204.1049382716,8.01199725411835
40.230773,29.009126,42.04,0.11,-1.37,10.2,-0.01,-0.05,0.01,2024-05-03 14:03:01.140,11.677777777777777,443204.1049382716,10.292181498593969
40.230663,29.009128,45.73,-0.26,-0.89,10.12,0.01,-0.03,0.01,2024-05-03 14:03:02.140,12.702777777777778,524421.830632716,10.162386530731844
40.230663,29.009128,45.73,-0.31,-1.14,10.7,0.06,-0.02,0.01,2024-05-03 14:03:03.140,12.702777777777778,524421.830632716,10.76502206221613
40.230663,29.009128,45.73,-0.38,-1.08,10.24,-0.02,-0.02,0.0,2024-05-03 14:03:04.140,12.702777777777778,524421.830632716,10.30380512238076
40.230663,29.009128,45.73,-0.69,-0.09,10.01,-0.01,-0.03,0.04,2024-05-03 14:03:05.140,12.702777777777778,524421.830632716,10.03415666610802
40.230663,29.009128,45.73,-0.48,0.9,9.85,-0.27,-0.06,-0.03,2024-05-03 14:03:06.140,12.702777777777778,524421.830632716,9.902671356760255
40.230541,29.009132,48.69,-1.07,0.88,13.18,0.03,0.0,0.01,2024-05-03 14:03:07.140,13.525,594508.28125,13.25261106348481
40.230541,29.009132,48.69,-1.16,0.76,9.91,0.0,0.02,-0.01,2024-05-03 14:03:08.140,13.525,594508.28125,10.006562846452322
40.230541,29.009132,48.69,-0.81,0.7,9.67,-0.02,0.01,-0.01,2024-05-03 14:03:09.140,13.525,594508.28125,9.729080120956965
40.230541,29.009132,48.69,-1.57,1.48,11.83,-0.02,0.02,-0.03,2024-05-03 14:03:10.140,13.525,594508.28125,12.02514864772989
40.230541,29.009132,48.69,-0.85,1.18,9.28,0.03,0.03,-0.02,2024-05-03 14:03:11.140,13.525,594508.28125,9.393258220660178
40.230541,29.009132,48.69,-1.17,1.23,9.75,0.06,0.01,0.01,2024-05-03 14:03:12.140,13.525,594508.28125,9.896681261918058
40.230541,29.009132,48.69,-1.41,0.87,9.89,0.03,0.02,-0.02,2024-05-03 14:03:13.140,13.525,594508.28125,10.027816312637563
40.230541,29.009132,48.69,-0.54,2.0,10.45,0.04,0.01,-0.0,2024-05-03 14:03:14.140,13.525,594508.28125,10.65336097201254
40.230541,29.009132,48.69,-0.82,1.5,10.3,0.02,0.0,0.0,2024-05-03 14:03:15.140,13.525,594508.28125,10.44090034431897
40.230541,29.009132,48.69,-1.41,0.81,9.54,0.0,-0.03,0.01,2024-05-03 14:03:16.140,13.525,594508.28125,9.677592675867277
40.230541,29.009132,48.69,-0.23,1.61,10.22,0.01,-0.0,-0.01,2024-05-03 14:03:17.140,13.525,594508.28125,10.348594107413819
40.23043,29.009136,42.5,0.27,1.71,9.65,0.04,-0.02,0.01,2024-05-03 14:03:18.140,11.805555555555555,452956.21141975303,9.804055283401864
40.23043,29.009136,42.5,-1.19,0.57,8.86,0.01,0.01,-0.01,2024-05-03 14:03:19.140,11.805555555555555,452956.21141975303,8.95771176138192
40.23043,29.009136,42.5,-0.53,1.4,11.09,-0.02,-0.06,0.01,2024-05-03 14:03:20.140,11.805555555555555,452956.21141975303,11.190576392661818
40.23043,29.009136,42.5,-1.06,1.36,10.31,0.01,0.01,-0.01,2024-05-03 14:03:21.140,11.805555555555555,452956.21141975303,10.453195683617523
40.23043,29.009136,42.5,-1.36,1.14,10.91,-0.05,0.02,-0.02,2024-05-03 14:03:22.140,11.805555555555555,452956.21141975303,11.053384097189422
40.23043,29.009136,42.5,-0.58,0.94,9.43,0.03,-0.01,-0.01,2024-05-03 14:03:23.140,11.805555555555555,452956.21141975303,9.494466809673938
40.23043,29.009136,42.5,-1.09,1.84,11.64,0.02,-0.0,-0.01,2024-05-03 14:03:24.140,11.805555555555555,452956.21141975303,11.834834177123058
40.23043,29.009136,42.5,-0.72,0.74,7.41,0.08,-0.01,-0.02,2024-05-03 14:03:25.140,11.805555555555555,452956.21141975303,7.481584056869241
40.23043,29.009136,42.5,-0.35,1.47,10.04,0.02,0.0,-0.01,2024-05-03 14:03:26.140,11.805555555555555,452956.21141975303,10.15307835092392
40.23043,29.009136,42.5,-1.14,1.58,10.34,-0.01,-0.01,-0.01,2024-05-03 14:03:27.140,11.805555555555555,452956.21141975303,10.521957992693185
40.230339,29.00914,34.15,-0.38,1.44,9.93,-0.0,-0.02,-0.01,2024-05-03 14:03:28.140,9.48611111111111,292455.4880401234,10.041060700941909
40.230339,29.00914,34.15,-1.2,1.17,9.34,0.03,-0.01,-0.0,2024-05-03 14:03:29.140,9.48611111111111,292455.4880401234,9.489178046596027
40.230339,29.00914,34.15,-0.42,1.76,10.52,0.05,0.01,-0.01,2024-05-03 14:03:30.140,9.48611111111111,292455.4880401234,10.674474225927945
40.230339,29.00914,34.15,-1.13,0.89,10.47,0.05,-0.01,-0.01,2024-05-03 14:03:31.140,9.48611111111111,292455.4880401234,10.5683442411761
40.230339,29.00914,34.15,-0.43,1.2,10.08,0.0,-0.0,-0.01,2024-05-03 14:03:32.140,9.48611111111111,292455.4880401234,10.160280507938745
40.230339,29.00914,34.15,-1.47,1.35,10.85,-0.01,0.01,-0.02,2024-05-03 14:03:33.140,9.48611111111111,292455.4880401234,11.032039702611662
40.230339,29.00914,34.15,-1.1,0.8,9.29,0.05,-0.02,-0.0,2024-05-03 14:03:34.140,9.48611111111111,292455.4880401234,9.389041484624508
40.230339,29.00914,34.15,-1.13,1.22,10.4,0.06,-0.02,0.0,2024-05-03 14:03:35.140,9.48611111111111,292455.4880401234,10.532108051097843
40.230262,29.009141,26.22,-0.24,1.19,10.04,-0.0,-0.01,-0.01,2024-05-03 14:03:36.140,7.283333333333333,172402.56944444444,10.113125135189417
40.230262,29.009141,26.22,-0.97,1.16,10.07,-0.01,0.01,-0.02,2024-05-03 14:03:37.140,7.283333333333333,172402.56944444444,10.182897426567745
40.230262,29.009141,26.22,-1.03,1.27,9.94,0.01,-0.01,-0.0,2024-05-03 14:03:38.140,7.283333333333333,172402.56944444444,10.073599158195645
40.230262,29.009141,26.22,-0.34,0.8,9.71,0.04,-0.04,-0.0,2024-05-03 14:03:39.140,7.283333333333333,172402.56944444444,9.74883069911464
40.230262,29.009141,26.22,-0.45,1.32,10.73,-0.02,0.0,-0.01,2024-05-03 14:03:40.140,7.283333333333333,172402.56944444444,10.820249535015355
40.230213,29.009145,18.09,-0.43,0.89,10.61,-0.0,-0.01,0.0,2024-05-03 14:03:41.140,5.025,82064.53125000001,10.655942004346683
40.230213,29.009145,18.09,-1.24,0.89,10.59,0.02,0.0,-0.02,2024-05-03 14:03:42.140,5.025,82064.53125000001,10.699429891354026
40.230213,29.009145,18.09,-0.59,1.62,11.37,-0.01,-0.01,-0.01,2024-05-03 14:03:43.140,5.025,82064.53125000001,11.49997391301389
40.230182,29.009145,9.98,-0.82,0.4,10.07,0.02,0.01,0.01,2024-05-03 14:03:44.140,2.772222222222222,24976.952160493824,10.111246213993605
40.230182,29.009145,9.98,-0.75,0.05,10.19,0.0,-0.0,-0.01,2024-05-03 14:03:45.140,2.772222222222222,24976.952160493824,10.217685647934173
40.230182,29.009145,9.98,-0.81,-0.17,9.85,0.01,-0.0,-0.01,2024-05-03 14:03:46.140,2.772222222222222,24976.952160493824,9.884710415586285
40.230167,29.009147,3.0,-0.82,-0.91,10.2,0.03,0.01,-0.0,2024-05-03 14:03:47.140,0.8333333333333334,2256.944444444445,10.27329061206778
40.230163,29.009147,1.02,-0.57,-1.46,10.15,0.1,0.0,-0.0,2024-05-03 14:03:48.140,0.2833333333333333,260.90277777777777,10.270296977205675
40.230163,29.009147,1.02,-0.71,-1.84,10.49,0.14,0.01,-0.0,2024-05-03 14:03:49.140,0.2833333333333333,260.90277777777777,10.673790329587705
40.230163,29.009147,1.02,-0.61,-1.88,9.91,0.02,-0.01,-0.03,2024-05-03 14:03:50.140,0.2833333333333333,260.90277777777777,10.105176891079147
40.230163,29.009147,1.02,-0.56,-1.99,10.19,0.01,-0.01,-0.01,2024-05-03 14:03:51.140,0.2833333333333333,260.90277777777777,10.397586258358235
40.230163,29.009147,1.02,-0.61,-2.35,9.97,0.0,-0.01,-0.03,2024-05-03 14:03:52.140,0.2833333333333333,260.90277777777777,10.261359559044795
40.230075,29.009151,16.91,-0.87,-1.83,9.84,0.02,-0.0,-0.01,2024-05-03 14:03:53.140,4.697222222222222,71707.66396604937,10.046462063831227
40.230026,29.009151,22.0,-0.73,-2.03,10.29,-0.01,-0.02,-0.02,2024-05-03 14:03:54.140,6.111111111111111,121373.45679012345,10.513700585426617
40.230026,29.009151,22.0,-0.98,-1.44,10.63,-0.03,0.05,-0.02,2024-05-03 14:03:55.140,6.111111111111111,121373.45679012345,10.771764015239102
40.230026,29.009151,22.0,-1.2,-2.22,9.36,0.0,0.04,-0.01,2024-05-03 14:03:56.140,6.111111111111111,121373.45679012345,9.694225085069975
40.230026,29.009151,22.0,-0.23,-2.49,7.72,0.01,-0.01,-0.02,2024-05-03 14:03:57.140,6.111111111111111,121373.45679012345,8.114887553133437
40.230026,29.009151,22.0,-0.05,-2.65,7.69,0.08,-0.02,-0.0,2024-05-03 14:03:58.140,6.111111111111111,121373.45679012345,8.13394738119199
40.230026,29.009151,22.0,-1.03,-1.46,10.76,0.02,-0.0,-0.03,2024-05-03 14:03:59.140,6.111111111111111,121373.45679012345,10.907341564285955
40.229961,29.009153,26.58,-0.82,-1.41,11.41,-0.02,-0.02,-0.01,2024-05-03 14:04:00.140,7.383333333333334,177169.23611111112,11.52599670310555
40.229961,29.009153,26.58,-0.68,-1.94,11.18,-0.01,0.01,-0.01,2024-05-03 14:04:01.140,7.383333333333334,177169.23611111112,11.367427149535642
40.229961,29.009153,26.58,-1.24,-1.46,10.69,-0.01,0.04,-0.02,2024-05-03 14:04:02.140,7.383333333333334,177169.23611111112,10.860262427768493
40.229961,29.009153,26.58,-0.72,-2.38,8.61,0.05,-0.02,-0.01,2024-05-03 14:04:03.140,7.383333333333334,177169.23611111112,8.961858066271748
40.229961,29.009153,26.58,-0.69,-1.43,11.19,-0.03,0.01,-0.01,2024-05-03 14:04:04.140,7.383333333333334,177169.23611111112,11.30208387864822
40.229961,29.009153,26.58,-0.34,-1.96,12.29,0.01,-0.06,-0.01,2024-05-03 14:04:05.140,7.383333333333334,177169.23611111112,12.44995180713564
40.229961,29.009153,26.58,0.2,-1.95,10.59,0.02,-0.04,0.01,2024-05-03 14:04:06.140,7.383333333333334,177169.23611111112,10.769893221383395
40.229961,29.009153,26.58,-0.05,-2.02,10.12,-0.01,-0.03,0.01,2024-05-03 14:04:07.140,7.383333333333334,177169.23611111112,10.319752904018584
40.229961,29.009153,26.58,0.16,-1.77,9.86,0.06,-0.03,0.01,2024-05-03 14:04:08.140,7.383333333333334,177169.23611111112,10.01888716375227
40.229961,29.009153,26.58,-0.86,-1.1,11.32,-0.01,0.0,0.01,2024-05-03 14:04:09.140,7.383333333333334,177169.23611111112,11.405788004342357
40.229961,29.009153,26.58,-0.01,-1.62,10.13,-0.01,-0.03,0.0,2024-05-03 14:04:10.140,7.383333333333334,177169.23611111112,10.258723117425482
40.229961,29.009153,26.58,-1.46,-2.07,9.03,-0.04,0.01,-0.01,2024-05-03 14:04:11.140,7.383333333333334,177169.23611111112,9.378560657158431
40.229961,29.009153,26.58,-0.77,-2.5,9.49,0.05,-0.02,-0.02,2024-05-03 14:04:12.140,7.383333333333334,177169.23611111112,9.843932141172044
40.229961,29.009153,26.58,-0.97,-1.74,10.59,-0.0,0.0,-0.02,2024-05-03 14:04:13.140,7.383333333333334,177169.23611111112,10.775741273805714
40.229961,29.009153,26.58,-0.44,-1.66,11.06,0.05,0.0,-0.01,2024-05-03 14:04:14.140,7.383333333333334,177169.23611111112,11.19253322532482
40.229961,29.009153,26.58,-1.2,-1.69,8.74,0.01,0.03,0.0,2024-05-03 14:04:15.140,7.383333333333334,177169.23611111112,8.982410589591193
40.229961,29.009153,26.58,-1.09,-1.51,9.75,-0.02,0.01,-0.01,2024-05-03 14:04:16.140,7.383333333333334,177169.23611111112,9.9262631438019
40.229961,29.009153,26.58,-0.83,-1.34,8.9,-0.01,0.02,-0.01,2024-05-03 14:04:17.140,7.383333333333334,177169.23611111112,9.038500981910662
40.229961,29.009153,26.58,-0.82,-2.06,8.44,0.0,0.01,0.01,2024-05-03 14:04:18.140,7.383333333333334,177169.23611111112,8.72637381734246
40.229961,29.009153,26.58,-0.78,-2.11,8.3,0.01,0.03,0.0,2024-05-03 14:04:19.140,7.383333333333334,177169.23611111112,8.599447656681214
40.229961,29.009153,26.58,-0.27,-1.31,10.46,0.04,-0.02,-0.02,2024-05-03 14:04:20.140,7.383333333333334,177169.23611111112,10.545169510254448
40.229961,29.009153,26.58,-1.25,-1.77,10.67,-0.02,0.04,0.0,2024-05-03 14:04:21.140,7.383333333333334,177169.23611111112,10.887805104794998
40.229961,29.009153,26.58,-0.3,-2.18,9.22,0.01,-0.06,-0.02,2024-05-03 14:04:22.140,7.383333333333334,177169.23611111112,9.478966188356196
40.229961,29.009153,26.58,-0.92,-1.99,8.54,0.08,-0.01,-0.01,2024-05-03 14:04:23.140,7.383333333333334,177169.23611111112,8.816921231359617
40.229961,29.009153,26.58,-0.57,-1.81,9.87,-0.01,-0.04,-0.0,2024-05-03 14:04:24.140,7.383333333333334,177169.23611111112,10.050766139951719
40.229701,29.009155,39.73,-1.2,-1.35,9.68,-0.01,0.04,-0.01,2024-05-03 14:04:25.140,11.036111111111111,395836.1824845679,9.847075708046527
40.229701,29.009155,39.73,-0.57,-2.2,7.59,0.05,-0.0,-0.01,2024-05-03 14:04:26.140,11.036111111111111,395836.1824845679,7.922941373000308
40.229701,29.009155,39.73,-0.91,-1.08,8.54,0.0,-0.0,-0.0,2024-05-03 14:04:27.140,11.036111111111111,395836.1824845679,8.655986367826603
40.229701,29.009155,39.73,0.05,-1.56,10.52,0.01,-0.01,-0.01,2024-05-03 14:04:28.140,11.036111111111111,395836.1824845679,10.63515397161696
40.229701,29.009155,39.73,-0.81,-1.45,10.58,-0.01,0.03,-0.01,2024-05-03 14:04:29.140,11.036111111111111,395836.1824845679,10.709575154972303
40.229598,29.009155,43.39,-0.76,-1.68,10.5,0.02,0.03,-0.03,2024-05-03 14:04:30.140,12.052777777777777,472125.7195216049,10.660675400742676
40.229598,29.009155,43.39,-0.74,-1.0,11.79,-0.03,0.03,0.0,2024-05-03 14:04:31.140,12.052777777777777,472125.7195216049,11.85545022342045
40.229598,29.009155,43.39,-1.02,-1.72,10.38,-0.02,0.03,-0.01,2024-05-03 14:04:32.140,12.052777777777777,472125.7195216049,10.570865622076559
40.229598,29.009155,43.39,-0.82,-2.24,9.63,0.01,-0.0,-0.01,2024-05-03 14:04:33.140,12.052777777777777,472125.7195216049,9.921033212322193
40.229598,29.009155,43.39,-0.24,-1.23,10.31,-0.01,-0.03,-0.0,2024-05-03 14:04:34.140,12.052777777777777,472125.7195216049,10.385884651776179
40.229598,29.009155,43.39,-0.68,-1.54,9.65,0.04,0.01,-0.0,2024-05-03 14:04:35.140,12.052777777777777,472125.7195216049,9.795738869528934
40.229484,29.009157,46.99,-1.21,-1.52,8.38,0.08,0.01,0.0,2024-05-03 14:04:36.140,13.052777777777777,553718.7750771604,8.602261330603717
40.229484,29.009157,46.99,-0.74,-0.74,11.24,0.0,0.0,-0.01,2024-05-03 14:04:37.140,13.052777777777777,553718.7750771604,11.288613732429683
40.229484,29.009157,46.99,-0.88,-1.15,10.08,-0.0,0.03,-0.01,2024-05-03 14:04:38.140,13.052777777777777,553718.7750771604,10.183481722868658
40.229484,29.009157,46.99,-0.26,-0.87,11.94,-0.13,0.02,-0.01,2024-05-03 14:04:39.140,13.052777777777777,553718.7750771604,11.97447702407082
40.229484,29.009157,46.99,-0.8,-0.14,9.54,-0.09,0.02,0.01,2024-05-03 14:04:40.140,13.052777777777777,553718.7750771604,9.574507820248515
40.229484,29.009157,46.99,-0.99,0.62,10.69,0.01,0.04,-0.01,2024-05-03 14:04:41.140,13.052777777777777,553718.7750771604,10.753631944603645
40.229362,29.009159,49.19,-1.68,1.27,11.89,-0.05,0.06,-0.01,2024-05-03 14:04:42.140,13.66388888888889,606781.0435956791,12.075073498741116
40.229362,29.009159,49.19,-0.78,0.56,8.84,-0.03,-0.01,-0.02,2024-05-03 14:04:43.140,13.66388888888889,606781.0435956791,8.891996401258831
40.229362,29.009159,49.19,-1.25,1.52,9.56,-0.03,0.0,-0.01,2024-05-03 14:04:44.140,13.66388888888889,606781.0435956791,9.76045593197367
40.229362,29.009159,49.19,-1.41,1.65,12.06,-0.02,0.03,-0.01,2024-05-03 14:04:45.140,13.66388888888889,606781.0435956791,12.253742285522412
40.229362,29.009159,49.19,-0.92,0.52,8.36,0.13,-0.16,-0.01,2024-05-03 14:04:46.140,13.66388888888889,606781.0435956791,8.426529534749166
40.229362,29.009159,49.19,-0.13,1.36,11.68,0.01,-0.05,0.01,2024-05-03 14:04:47.140,13.66388888888889,606781.0435956791,11.759630096223264
40.229362,29.009159,49.19,-0.76,0.28,11.3,0.0,-0.08,0.02,2024-05-03 14:04:48.140,13.66388888888889,606781.0435956791,11.3289893635752
40.229362,29.009159,49.19,-0.49,0.83,9.17,0.04,-0.06,0.02,2024-05-03 14:04:49.140,13.66388888888889,606781.0435956791,9.220515169989147
40.229362,29.009159,49.19,-1.33,0.7,11.26,0.01,0.01,-0.01,2024-05-03 14:04:50.140,13.66388888888889,606781.0435956791,11.359863555518615
40.229362,29.009159,49.19,-1.09,0.07,10.57,0.0,-0.05,0.0,2024-05-03 14:04:51.140,13.66388888888889,606781.0435956791,10.626283451894176
40.229251,29.009159,42.26,-0.79,0.59,10.38,0.0,-0.0,-0.01,2024-05-03 14:04:52.140,11.738888888888889,447854.9151234568,10.42672527690262
40.229251,29.009159,42.26,-0.94,0.84,11.22,-0.05,0.04,-0.03,2024-05-03 14:04:53.140,11.738888888888889,447854.9151234568,11.290597858395277
40.229251,29.009159,42.26,-1.22,0.36,9.72,0.03,-0.01,0.0,2024-05-03 14:04:54.140,11.738888888888889,447854.9151234568,9.80287712868013
40.229251,29.009159,42.26,-0.33,1.52,11.26,0.04,-0.03,0.01,2024-05-03 14:04:55.140,11.738888888888889,447854.9151234568,11.366921307020649
40.229251,29.009159,42.26,-1.86,-0.2,9.32,0.05,0.01,-0.02,2024-05-03 14:04:56.140,11.738888888888889,447854.9151234568,9.505892909137994
40.229251,29.009159,42.26,-1.36,1.05,11.42,-0.0,0.01,-0.01,2024-05-03 14:04:57.140,11.738888888888889,447854.9151234568,11.548528044733667
40.229251,29.009159,42.26,-0.36,0.43,7.81,0.04,-0.07,-0.0,2024-05-03 14:04:58.140,11.738888888888889,447854.9151234568,7.830108556080177
40.229251,29.009159,42.26,-0.24,0.09,10.58,-0.01,-0.07,-0.0,2024-05-03 14:04:59.140,11.738888888888889,447854.9151234568,10.583104459467458
40.229251,29.009159,42.26,-1.3,0.93,11.23,0.04,-0.01,-0.02,2024-05-03 14:05:00.140,11.738888888888889,447854.9151234568,11.343182974809142
40.229251,29.009159,42.26,-0.79,0.5,10.52,0.04,-0.0,-0.01,2024-05-03 14:05:01.140,11.738888888888889,447854.9151234568,10.561462966843182
40.22916,29.00916,35.34,-0.61,0.36,9.84,0.06,0.0,-0.0,2024-05-03 14:05:02.140,9.816666666666666,313192.56944444444,9.865459948730216
40.22916,29.00916,35.34,-0.55,0.11,10.71,0.0,-0.03,-0.01,2024-05-03 14:05:03.140,9.816666666666666,313192.56944444444,10.724677151317891
40.22916,29.00916,35.34,-0.41,0.26,10.52,-0.05,0.02,-0.01,2024-05-03 14:05:04.140,9.816666666666666,313192.56944444444,10.531196513217289
40.22916,29.00916,35.34,-1.27,0.41,10.31,0.01,0.02,-0.01,2024-05-03 14:05:05.140,9.816666666666666,313192.56944444444,10.39601365909068
40.22916,29.00916,35.34,-0.57,0.62,9.93,0.02,0.01,-0.02,2024-05-03 14:05:06.140,9.816666666666666,313192.56944444444,9.965651007335145
40.22916,29.00916,35.34,-0.97,0.97,10.86,0.02,0.01,-0.01,2024-05-03 14:05:07.140,9.816666666666666,313192.56944444444,10.946296177246438
40.22916,29.00916,35.34,-1.03,0.04,9.8,-0.01,-0.02,-0.01,2024-05-03 14:05:08.140,9.816666666666666,313192.56944444444,9.854060076942906
40.22916,29.00916,35.34,-0.75,0.09,8.73,0.01,-0.03,-0.01,2024-05-03 14:05:09.140,9.816666666666666,313192.56944444444,8.762619471368136
40.229084,29.00916,28.8,-0.62,0.87,9.69,-0.01,-0.01,-0.01,2024-05-03 14:05:10.140,8.0,208000.0,9.748712735535907
40.229084,29.00916,28.8,-0.62,0.33,10.63,-0.02,-0.02,-0.0,2024-05-03 14:05:11.140,8.0,208000.0,10.653177929613305
40.229084,29.00916,28.8,-1.12,0.67,10.83,-0.02,0.03,-0.02,2024-05-03 14:05:12.140,8.0,208000.0,10.908354596363285
40.229084,29.00916,28.8,-1.13,0.36,10.45,0.02,-0.0,-0.01,2024-05-03 14:05:13.140,8.0,208000.0,10.517081344175292
40.229084,29.00916,28.8,-0.5,1.07,10.96,-0.01,0.03,-0.02,2024-05-03 14:05:14.140,8.0,208000.0,11.023452272314696
40.229084,29.00916,28.8,-1.62,0.57,9.98,0.03,-0.02,-0.0,2024-05-03 14:05:15.140,8.0,208000.0,10.126682576243812
40.229084,29.00916,28.8,-0.62,1.13,10.84,0.01,-0.0,-0.01,2024-05-03 14:05:16.140,8.0,208000.0,10.916359283204267
40.229084,29.00916,28.8,-1.47,0.47,10.26,0.02,-0.0,-0.01,2024-05-03 14:05:17.140,8.0,208000.0,10.375422882947952
40.229084,29.00916,28.8,-0.8,0.57,9.66,0.02,-0.0,-0.01,2024-05-03 14:05:18.140,8.0,208000.0,9.709814622329306
40.229084,29.00916,28.8,-1.81,0.73,10.41,0.01,-0.0,-0.01,2024-05-03 14:05:19.140,8.0,208000.0,10.591369127737924
40.229026,29.009162,22.46,-1.31,0.5,10.28,0.02,-0.01,-0.01,2024-05-03 14:05:20.140,6.238888888888889,126502.13734567902,10.375186745307285
40.229026,29.009162,22.46,-0.23,0.36,10.49,0.0,-0.05,0.0,2024-05-03 14:05:21.140,6.238888888888889,126502.13734567902,10.498695157018323
40.229026,29.009162,22.46,-1.01,0.49,11.25,-0.02,0.0,-0.02,2024-05-03 14:05:22.140,6.238888888888889,126502.13734567902,11.305870156692938
40.229026,29.009162,22.46,-1.04,0.44,10.37,0.02,-0.03,-0.0,2024-05-03 14:05:23.140,6.238888888888889,126502.13734567902,10.43130384947155
40.228981,29.009162,16.43,-1.36,0.74,10.42,0.06,-0.01,-0.01,2024-05-03 14:05:24.140,4.563888888888889,67694.51581790125,10.534400789793409
40.228981,29.009162,16.43,-0.93,0.14,10.29,0.04,0.01,0.0,2024-05-03 14:05:25.140,4.563888888888889,67694.51581790125,10.332889237768882
40.22895,29.009164,10.7,-0.64,0.31,10.47,-0.0,-0.01,-0.01,2024-05-03 14:05:26.140,2.9722222222222223,28710.84104938272,10.494122164335616
40.22895,29.009164,10.7,-0.89,-0.76,10.45,0.04,0.02,-0.0,2024-05-03 14:05:27.140,2.9722222222222223,28710.84104938272,10.515331663813557
40.228321,29.009265,0.02,-0.37,-0.78,10.05,0.01,-0.0,-0.01,2024-05-03 14:05:28.140,0.005555555555555556,0.10030864197530864,10.087011450375181
40.228324,29.009265,0.33,-0.3,-0.99,10.39,0.0,-0.0,-0.01,2024-05-03 14:05:29.140,0.09166666666666666,27.30902777777777,10.441369641957898
40.228466,29.009275,20.83,0.15,-1.49,10.45,-0.0,-0.0,-0.0,2024-05-03 14:05:30.140,5.786111111111111,108807.01581790124,10.556756130554499
40.228523,29.009273,24.52,0.2,-1.5,10.69,0.01,-0.03,0.0,2024-05-03 14:05:31.140,6.811111111111111,150771.512345679,10.796578161621394
40.228523,29.009273,24.52,-0.28,-1.95,11.26,0.01,-0.01,-0.01,2024-05-03 14:05:32.140,6.811111111111111,150771.512345679,11.431032324335366
40.228523,29.009273,24.52,-0.5,-0.88,9.99,0.04,0.01,0.0,2024-05-03 14:05:33.140,6.811111111111111,150771.512345679,10.041140373483483
40.228523,29.009273,24.52,-0.19,-1.98,9.02,-0.0,-0.0,-0.01,2024-05-03 14:05:34.140,6.811111111111111,150771.512345679,9.236714783947809
40.228523,29.009273,24.52,-0.04,-1.51,10.8,0.03,0.02,0.0,2024-05-03 14:05:35.140,6.811111111111111,150771.512345679,10.905122649470753
40.228523,29.009273,24.52,-0.06,-1.51,8.72,0.05,0.01,-0.02,2024-05-03 14:05:36.140,6.811111111111111,150771.512345679,8.849977401101091
40.228523,29.009273,24.52,-0.14,-1.29,11.48,0.03,0.02,-0.01,2024-05-03 14:05:37.140,6.811111111111111,150771.512345679,11.553099151310006
40.228523,29.009273,24.52,-0.05,-2.13,8.12,-0.0,-0.0,-0.01,2024-05-03 14:05:38.140,6.811111111111111,150771.512345679,8.394867479597279
40.228523,29.009273,24.52,-0.04,-1.06,11.67,0.02,0.03,-0.0,2024-05-03 14:05:39.140,6.811111111111111,150771.512345679,11.718109915852471
40.228523,29.009273,24.52,0.17,-1.24,11.68,0.02,0.02,-0.01,2024-05-03 14:05:40.140,6.811111111111111,150771.512345679,11.746867667595476
40.228523,29.009273,24.52,-0.83,-1.36,10.65,-0.01,0.01,-0.02,2024-05-03 14:05:41.140,6.811111111111111,150771.512345679,10.768518932518065
40.228595,29.009269,28.71,-0.35,-1.58,12.21,0.02,0.01,-0.0,2024-05-03 14:05:42.140,7.975,206702.03124999997,12.316777175868696
40.228595,29.009269,28.71,0.13,-1.26,11.04,-0.0,-0.01,-0.01,2024-05-03 14:05:43.140,7.975,206702.03124999997,11.112429977282195
40.228595,29.009269,28.71,-0.28,-1.54,11.04,0.01,0.01,-0.01,2024-05-03 14:05:44.140,7.975,206702.03124999997,11.150408064281772
40.228595,29.009269,28.71,-0.17,-1.35,9.76,0.02,0.0,-0.0,2024-05-03 14:05:45.140,7.975,206702.03124999997,9.854389884716355
40.228595,29.009269,28.71,-0.38,-1.28,9.12,0.03,0.01,-0.0,2024-05-03 14:05:46.140,7.975,206702.03124999997,9.217223009128073
40.228595,29.009269,28.71,0.09,-1.68,10.37,0.01,-0.0,-0.01,2024-05-03 14:05:47.140,7.975,206702.03124999997,10.50558898872405
40.228672,29.009273,32.58,-0.48,-1.53,10.3,0.01,-0.01,-0.01,2024-05-03 14:05:48.140,9.05,266183.12500000006,10.424073100280907
40.228672,29.009273,32.58,0.29,-1.57,10.03,0.02,-0.02,-0.02,2024-05-03 14:05:49.140,9.05,266183.12500000006,10.156273923048747
40.228672,29.009273,32.58,-0.18,-1.7,10.78,0.0,-0.02,-0.01,2024-05-03 14:05:50.140,9.05,266183.12500000006,10.914705676288298
40.228672,29.009273,32.58,-0.14,-1.42,10.3,0.01,-0.02,-0.01,2024-05-03 14:05:51.140,9.05,266183.12500000006,10.398365256135216
40.228759,29.009275,34.74,0.28,-1.12,10.87,0.01,-0.0,-0.0,2024-05-03 14:05:52.140,9.65,302648.125,10.931134433351371
40.228759,29.009275,34.74,0.16,-1.47,9.46,-0.01,-0.01,-0.0,2024-05-03 14:05:53.140,9.65,302648.125,9.574868145306233
40.228858,29.009271,40.61,-0.06,-1.29,10.83,0.01,0.0,-0.01,2024-05-03 14:05:54.140,11.280555555555555,413565.5343364197,10.906722697492588
40.228965,29.009267,44.17,0.05,-0.78,9.73,0.01,-0.0,-0.01,2024-05-03 14:05:55.140,12.269444444444444,489252.6176697531,9.76134212083564
40.228965,29.009267,44.17,0.76,-1.14,10.11,0.03,-0.01,-0.01,2024-05-03 14:05:56.140,12.269444444444444,489252.6176697531,10.20241638044635
40.228965,29.009267,44.17,-0.85,-1.14,10.04,0.01,0.01,-0.0,2024-05-03 14:05:57.140,12.269444444444444,489252.6176697531,10.140202167609873
40.228965,29.009267,44.17,-0.32,-0.99,11.06,0.02,-0.0,-0.01,2024-05-03 14:05:58.140,12.269444444444444,489252.6176697531,11.108829821362825
40.228965,29.009267,44.17,-0.63,-0.29,9.21,0.01,0.0,-0.0,2024-05-03 14:05:59.140,12.269444444444444,489252.6176697531,9.236076006616663
40.228965,29.009267,44.17,-0.24,-0.4,11.66,0.01,-0.0,0.0,2024-05-03 14:06:00.140,12.269444444444444,489252.6176697531,11.66932731565963
40.22908,29.009263,45.82,-0.37,0.6,9.74,0.02,-0.01,0.0,2024-05-03 14:06:01.140,12.727777777777778,526488.063271605,9.765474898846445
40.22908,29.009263,45.82,-0.37,1.45,11.34,0.02,-0.0,0.01,2024-05-03 14:06:02.140,12.727777777777778,526488.063271605,11.43831281264855
40.22908,29.009263,45.82,-0.63,1.14,10.17,0.01,0.01,0.0,2024-05-03 14:06:03.140,12.727777777777778,526488.063271605,10.253067833580348
40.22908,29.009263,45.82,-0.4,1.48,10.64,0.02,-0.0,0.01,2024-05-03 14:06:04.140,12.727777777777778,526488.063271605,10.74988372030135
40.22908,29.009263,45.82,-0.26,1.91,10.12,0.0,0.0,-0.0,2024-05-03 14:06:05.140,12.727777777777778,526488.063271605,10.301946418031886
40.229202,29.00926,49.04,-0.32,2.32,10.41,0.02,-0.0,-0.0,2024-05-03 14:06:06.140,13.622222222222222,603086.049382716,10.670187439778179
40.229202,29.00926,49.04,-0.49,1.88,9.36,0.0,0.01,-0.01,2024-05-03 14:06:07.140,13.622222222222222,603086.049382716,9.559503125162939
40.229202,29.00926,49.04,-0.7,1.76,11.36,0.0,-0.02,-0.01,2024-05-03 14:06:08.140,13.622222222222222,603086.049382716,11.516822478444304
40.229202,29.00926,49.04,-0.6,2.26,10.82,0.03,0.01,-0.01,2024-05-03 14:06:09.140,13.622222222222222,603086.049382716,11.069778678907722
40.229202,29.00926,49.04,-0.53,1.77,10.3,0.0,-0.0,-0.01,2024-05-03 14:06:10.140,13.622222222222222,603086.049382716,10.464406337676305
40.229312,29.009256,43.28,-0.81,2.05,10.63,0.0,-0.0,-0.01,2024-05-03 14:06:11.140,12.022222222222222,469734.9382716049,10.856127302127588
40.2294,29.009252,32.43,-0.71,2.35,10.58,0.02,-0.01,-0.0,2024-05-03 14:06:12.140,9.008333333333333,263737.72569444444,10.861077294633347
40.229503,29.009252,16.52,-0.44,1.58,10.27,0.01,-0.0,-0.01,2024-05-03 14:06:13.140,4.588888888888889,68438.17901234566,10.400139422142377
40.229503,29.009252,16.52,-0.46,1.37,10.18,0.01,-0.0,-0.02,2024-05-03 14:06:14.140,4.588888888888889,68438.17901234566,10.282066912834209
40.229537,29.009252,1.8,1.42,0.38,14.58,-1.45,4.37,-0.34,2024-05-03 14:06:15.140,0.5,812.5,14.653914152880793
40.229537,29.009252,1.8,-0.34,0.0,9.12,0.13,-0.05,-0.08,2024-05-03 14:06:16.140,0.5,812.5,9.12633551870629
40.229675,29.009256,21.41,0.24,-1.68,11.06,0.02,-0.01,-0.0,2024-05-03 14:06:17.140,5.947222222222222,114950.71952160491,11.189441451654323
40.229675,29.009256,21.41,-0.28,-1.13,10.06,0.02,0.06,-0.01,2024-05-03 14:06:18.140,5.947222222222222,114950.71952160491,10.127136811557351
40.229675,29.009256,21.41,-0.07,-1.63,9.18,0.0,-0.04,-0.02,2024-05-03 14:06:19.140,5.947222222222222,114950.71952160491,9.323851135662773
40.229675,29.009256,21.41,-0.28,-1.15,9.4,0.02,0.04,-0.01,2024-05-03 14:06:20.140,5.947222222222222,114950.71952160491,9.474222923279777
40.229675,29.009256,21.41,-1.03,-1.69,11.11,0.0,0.09,-0.02,2024-05-03 14:06:21.140,5.947222222222222,114950.71952160491,11.284905848078662
40.229675,29.009256,21.41,-0.26,-1.17,9.94,0.01,0.09,-0.02,2024-05-03 14:06:22.140,5.947222222222222,114950.71952160491,10.011997802636595
40.229675,29.009256,21.41,0.14,-1.29,8.76,0.0,0.12,-0.01,2024-05-03 14:06:23.140,5.947222222222222,114950.71952160491,8.855580161683367
40.229736,29.009252,27.47,0.17,-1.4,10.35,-0.01,0.08,-0.01,2024-05-03 14:06:24.140,7.6305555555555555,189232.47878086418,10.44564023887478
40.229736,29.009252,27.47,-0.6,-0.7,11.36,0.04,-0.07,-0.01,2024-05-03 14:06:25.140,7.6305555555555555,189232.47878086418,11.397350569320924
40.229736,29.009252,27.47,0.03,-2.06,8.59,0.02,-0.09,-0.02,2024-05-03 14:06:26.140,7.6305555555555555,189232.47878086418,8.833606285091044
40.229736,29.009252,27.47,-0.31,-1.71,9.45,-0.01,0.11,-0.01,2024-05-03 14:06:27.140,7.6305555555555555,189232.47878086418,9.608470221632578
40.229736,29.009252,27.47,-0.21,-1.4,10.11,0.0,0.05,-0.01,2024-05-03 14:06:28.140,7.6305555555555555,189232.47878086418,10.208633601026143
40.229736,29.009252,27.47,-0.16,-1.45,11.4,0.02,-0.01,-0.01,2024-05-03 14:06:29.140,7.6305555555555555,189232.47878086418,11.49295871392567
40.229736,29.009252,27.47,-0.29,-0.93,9.97,0.04,-0.06,-0.01,2024-05-03 14:06:30.140,7.6305555555555555,189232.47878086418,10.017479722964255
40.229736,29.009252,27.47,0.2,-1.75,10.51,-0.02,0.07,-0.01,2024-05-03 14:06:31.140,7.6305555555555555,189232.47878086418,10.656575434913414
40.229808,29.009248,30.72,-0.66,-1.48,9.83,0.04,-0.05,-0.01,2024-05-03 14:06:32.140,8.533333333333333,236657.77777777778,9.96267534350086
40.229808,29.009248,30.72,-0.01,-1.3,10.58,0.03,-0.03,-0.01,2024-05-03 14:06:33.140,8.533333333333333,236657.77777777778,10.659573162186186
40.229808,29.009248,30.72,-0.32,-1.24,9.64,0.03,-0.05,-0.01,2024-05-03 14:06:34.140,8.533333333333333,236657.77777777778,9.724690226428809
40.229892,29.009244,35.95,0.21,-1.41,9.7,0.01,0.02,-0.0,2024-05-03 14:06:35.140,9.98611111111111,324097.84915123455,9.80419298055684
40.229892,29.009244,35.95,-0.29,-1.54,9.72,0.01,0.03,-0.01,2024-05-03 14:06:36.140,9.98611111111111,324097.84915123455,9.845511667760087
40.229892,29.009244,35.95,0.03,-1.4,10.86,0.02,0.01,-0.01,2024-05-03 14:06:37.140,9.98611111111111,324097.84915123455,10.949908675418255
40.229991,29.009241,41.98,-0.11,-1.0,10.56,0.03,-0.06,-0.01,2024-05-03 14:06:38.140,11.661111111111111,441939.9151234568,10.607813158233888
40.229991,29.009241,41.98,-0.63,-1.12,9.68,0.03,-0.01,-0.01,2024-05-03 14:06:39.140,11.661111111111111,441939.9151234568,9.764921914690358
40.230098,29.009237,44.52,-0.16,-1.12,10.71,0.03,0.02,-0.0,2024-05-03 14:06:40.140,12.366666666666667,497036.9444444445,10.769591450004036
40.230098,29.009237,44.52,-0.06,-0.85,11.45,-0.01,0.01,-0.01,2024-05-03 14:06:41.140,12.366666666666667,497036.9444444445,11.481663642521497
40.230098,29.009237,44.52,-0.45,-0.4,10.68,-0.0,0.01,-0.0,2024-05-03 14:06:42.140,12.366666666666667,497036.9444444445,10.696957511367426
40.230216,29.009235,48.45,-0.47,1.5,9.83,0.06,-0.01,-0.01,2024-05-03 14:06:43.140,13.458333333333334,588661.8923611111,9.954888246484739
40.230216,29.009235,48.45,-1.05,2.53,10.15,0.0,0.02,-0.02,2024-05-03 14:06:44.140,13.458333333333334,588661.8923611111,10.513129886004453
40.230216,29.009235,48.45,0.02,2.52,10.63,0.02,-0.0,-0.03,2024-05-03 14:06:45.140,13.458333333333334,588661.8923611111,10.924637293750306
40.230216,29.009235,48.45,-1.58,3.04,10.97,0.02,0.04,-0.02,2024-05-03 14:06:46.140,13.458333333333334,588661.8923611111,11.492558461891766
40.230216,29.009235,48.45,-1.24,2.89,11.51,0.0,-0.0,-0.01,2024-05-03 14:06:47.140,13.458333333333334,588661.8923611111,11.931881662168797
40.230216,29.009235,48.45,-0.73,2.72,10.65,0.01,0.0,-0.01,2024-05-03 14:06:48.140,13.458333333333334,588661.8923611111,11.016070079660896
40.230331,29.009237,46.08,-0.48,2.79,9.82,-0.0,-0.01,-0.01,2024-05-03 14:06:49.140,12.8,532480.0000000001,10.219926614217933
40.230331,29.009237,46.08,-0.81,2.65,11.12,0.03,0.0,-0.02,2024-05-03 14:06:50.140,12.8,532480.0000000001,11.460061081861648
40.230422,29.009241,33.54,-0.29,2.42,10.81,0.0,-0.01,-0.01,2024-05-03 14:06:51.140,9.316666666666666,282100.9027777778,11.08136273208309
40.230575,29.009239,11.46,-0.52,0.96,10.28,0.02,0.0,-0.01,2024-05-03 14:06:52.140,3.183333333333333,32934.23611111111,10.337814082290317
40.230575,29.009239,11.46,-0.47,0.73,10.13,0.01,0.0,-0.01,2024-05-03 14:06:53.140,3.183333333333333,32934.23611111111,10.16713824042931
40.23059,29.009237,2.04,-0.29,-0.83,10.21,0.01,-0.01,-0.01,2024-05-03 14:06:54.140,0.5666666666666667,1043.611111111111,10.247785126552957
40.23059,29.009237,2.04,-0.11,-1.46,10.31,0.0,-0.01,-0.01,2024-05-03 14:06:55.140,0.5666666666666667,1043.611111111111,10.413443234588645
40.23059,29.009237,2.04,-0.3,-1.69,9.73,0.01,-0.0,-0.01,2024-05-03 14:06:56.140,0.5666666666666667,1043.611111111111,9.88023279077978
40.230697,29.009241,19.76,-0.67,-1.3,10.87,-0.01,0.0,-0.01,2024-05-03 14:06:57.140,5.488888888888889,97915.67901234567,10.967944201170974
40.230697,29.009241,19.76,-0.28,-1.83,11.07,0.02,0.01,-0.01,2024-05-03 14:06:58.140,5.488888888888889,97915.67901234567,11.223733781589797
40.230697,29.009241,19.76,-0.48,-1.65,8.73,-0.02,0.04,-0.02,2024-05-03 14:06:59.140,5.488888888888889,97915.67901234567,8.897516507430598
40.230697,29.009241,19.76,0.28,-1.58,9.29,0.01,0.01,-0.0,2024-05-03 14:07:00.140,5.488888888888889,97915.67901234567,9.42756066010715
40.230697,29.009241,19.76,-0.77,-1.63,11.95,-0.0,0.01,-0.01,2024-05-03 14:07:01.140,5.488888888888889,97915.67901234567,12.085209969214436
40.230697,29.009241,19.76,-0.84,-1.89,9.9,-0.02,-0.0,-0.02,2024-05-03 14:07:02.140,5.488888888888889,97915.67901234567,10.113738181305663
40.230697,29.009241,19.76,-0.26,-0.51,12.12,0.02,0.01,0.0,2024-05-03 14:07:03.140,5.488888888888889,97915.67901234567,12.13351144557914
40.230697,29.009241,19.76,-0.3,-2.08,9.74,0.01,-0.09,-0.01,2024-05-03 14:07:04.140,5.488888888888889,97915.67901234567,9.964135687554641
40.230697,29.009241,19.76,-0.53,-0.8,12.05,0.03,0.0,-0.01,2024-05-03 14:07:05.140,5.488888888888889,97915.67901234567,12.088151223408813
40.230697,29.009241,19.76,-0.22,-1.81,8.92,0.01,-0.08,-0.0,2024-05-03 14:07:06.140,5.488888888888889,97915.67901234567,9.10444396984242
40.230697,29.009241,19.76,0.19,-0.96,9.67,0.04,0.02,0.01,2024-05-03 14:07:07.140,5.488888888888889,97915.67901234567,9.719392985161162
40.230697,29.009241,19.76,0.17,-1.37,12.51,0.03,-0.01,-0.02,2024-05-03 14:07:08.140,5.488888888888889,97915.67901234567,12.585940568745746
40.230697,29.009241,19.76,-0.36,-1.34,11.69,0.03,0.02,-0.01,2024-05-03 14:07:09.140,5.488888888888889,97915.67901234567,11.772055895212185
40.230697,29.009241,19.76,0.04,-1.63,7.76,-0.0,0.04,0.0,2024-05-03 14:07:10.140,5.488888888888889,97915.67901234567,7.929445125606204
40.230827,29.009244,29.84,-0.16,-2.54,10.03,-0.0,-0.01,-0.0,2024-05-03 14:07:11.140,8.28888888888889,223293.4567901235,10.347854850160973
40.230827,29.009244,29.84,-0.58,-1.85,8.9,-0.01,0.05,-0.01,2024-05-03 14:07:12.140,8.28888888888889,223293.4567901235,9.108726584984314
40.230827,29.009244,29.84,-0.18,-0.7,9.46,0.04,-0.08,-0.01,2024-05-03 14:07:13.140,8.28888888888889,223293.4567901235,9.487570816600002
40.230827,29.009244,29.84,-0.59,-0.54,9.85,0.03,-0.09,-0.01,2024-05-03 14:07:14.140,8.28888888888889,223293.4567901235,9.882418732273997
40.230827,29.009244,29.84,-0.19,-1.01,11.3,0.01,-0.0,-0.01,2024-05-03 14:07:15.140,8.28888888888889,223293.4567901235,11.34663826866795
40.230827,29.009244,29.84,-0.33,-0.3,10.95,0.01,0.0,-0.01,2024-05-03 14:07:16.140,8.28888888888889,223293.4567901235,10.95907842840811
40.230907,29.009246,34.15,-0.26,-0.52,9.61,0.01,-0.02,-0.01,2024-05-03 14:07:17.140,9.48611111111111,292455.4880401234,9.627569786815362
40.230907,29.009246,34.15,-0.32,-1.2,10.25,0.02,-0.01,-0.0,2024-05-03 14:07:18.140,9.48611111111111,292455.4880401234,10.32496489098147
40.230907,29.009246,34.15,-0.55,-1.73,10.5,0.02,-0.02,-0.01,2024-05-03 14:07:19.140,9.48611111111111,292455.4880401234,10.655768390876371
40.230907,29.009246,34.15,0.05,-1.31,9.5,-0.01,-0.03,-0.0,2024-05-03 14:07:20.140,9.48611111111111,292455.4880401234,9.590026068786257
40.230907,29.009246,34.15,0.09,-1.36,11.03,-0.0,-0.01,-0.0,2024-05-03 14:07:21.140,9.48611111111111,292455.4880401234,11.113892207503183
40.230907,29.009246,34.15,-0.44,-1.22,10.86,0.01,-0.0,-0.01,2024-05-03 14:07:22.140,9.48611111111111,292455.4880401234,10.937165994900141
40.230907,29.009246,34.15,-0.27,-1.66,11.14,-0.01,-0.04,-0.0,2024-05-03 14:07:23.140,9.48611111111111,292455.4880401234,11.266237171300807
40.230907,29.009246,34.15,0.07,-1.26,10.85,-0.01,-0.02,0.01,2024-05-03 14:07:24.140,9.48611111111111,292455.4880401234,10.923140574029064
40.230907,29.009246,34.15,0.18,-0.9,9.82,0.01,-0.03,0.01,2024-05-03 14:07:25.140,9.48611111111111,292455.4880401234,9.862798791418184
40.230907,29.009246,34.15,-0.16,-1.17,9.46,0.02,-0.05,-0.02,2024-05-03 14:07:26.140,9.48611111111111,292455.4880401234,9.533420162774743
40.230907,29.009246,34.15,0.16,-1.77,10.4,-0.03,-0.02,0.0,2024-05-03 14:07:27.140,9.48611111111111,292455.4880401234,10.550758266589185
40.230991,29.009246,32.76,-0.33,-1.21,10.37,0.0,0.0,0.0,2024-05-03 14:07:28.140,9.1,269132.49999999994,10.445568438337856
40.230991,29.009246,32.76,-0.22,-1.79,8.65,0.02,0.02,0.01,2024-05-03 14:07:29.140,9.1,269132.49999999994,8.836005885013885
40.231086,29.009241,38.8,-0.5,-1.05,9.94,-0.0,0.02,0.0,2024-05-03 14:07:30.140,10.777777777777779,377521.60493827163,10.00780195647376
40.231086,29.009241,38.8,-0.22,-0.95,10.7,-0.01,-0.01,-0.01,2024-05-03 14:07:31.140,10.777777777777779,377521.60493827163,10.744342697438498
40.231086,29.009241,38.8,-0.18,-1.12,11.53,-0.01,0.01,-0.0,2024-05-03 14:07:32.140,10.777777777777779,377521.60493827163,11.585667870261084
40.231086,29.009241,38.8,-0.2,-1.01,10.82,0.0,0.01,-0.0,2024-05-03 14:07:33.140,10.777777777777779,377521.60493827163,10.868877586945214
40.231296,29.009227,43.84,-0.71,-1.42,9.71,-0.03,-0.01,-0.0,2024-05-03 14:07:34.140,12.177777777777777,481969.3827160494,9.838932868965008
40.231296,29.009227,43.84,0.47,-0.81,9.63,-0.01,-0.0,0.0,2024-05-03 14:07:35.140,12.177777777777777,481969.3827160494,9.675427639127896
40.231296,29.009227,43.84,-0.53,0.28,10.65,0.0,0.01,-0.0,2024-05-03 14:07:36.140,12.177777777777777,481969.3827160494,10.666855206667053
40.231296,29.009227,43.84,-0.49,1.5,10.92,0.02,-0.0,-0.01,2024-05-03 14:07:37.140,12.177777777777777,481969.3827160494,11.033426485004556
40.231296,29.009227,43.84,-0.7,2.07,10.37,0.0,-0.02,-0.01,2024-05-03 14:07:38.140,12.177777777777777,481969.3827160494,10.597726171212388
40.231296,29.009227,43.84,-0.68,1.99,11.24,0.0,-0.02,-0.02,2024-05-03 14:07:39.140,12.177777777777777,481969.3827160494,11.435038259664898
40.231296,29.009227,43.84,-0.44,2.31,10.55,0.01,-0.02,-0.03,2024-05-03 14:07:40.140,12.177777777777777,481969.3827160494,10.808894485561417
40.231296,29.009227,43.84,-0.51,1.99,9.22,0.04,0.0,-0.01,2024-05-03 14:07:41.140,12.177777777777777,481969.3827160494,9.446089137839003
40.231422,29.009223,48.65,-0.57,1.88,10.5,-0.0,-0.02,-0.01,2024-05-03 14:07:42.140,13.51388888888889,593531.8769290124,10.68219546722489
40.231422,29.009223,48.65,-0.3,1.87,9.92,0.02,0.01,-0.01,2024-05-03 14:07:43.140,13.51388888888889,593531.8769290124,10.099173233487978
40.231533,29.009218,41.47,-0.27,1.45,9.68,0.01,-0.0,-0.01,2024-05-03 14:07:44.140,11.519444444444444,431267.2010030864,9.791720992757096
40.231533,29.009218,41.47,-0.45,1.73,9.14,0.01,0.01,-0.01,2024-05-03 14:07:45.140,11.519444444444444,431267.2010030864,9.313162728096188
40.231533,29.009218,41.47,-1.2,2.23,10.85,0.02,0.01,-0.01,2024-05-03 14:07:46.140,11.519444444444444,431267.2010030864,11.141606706395626
40.231533,29.009218,41.47,-0.45,1.84,10.68,0.02,-0.0,-0.01,2024-05-03 14:07:47.140,11.519444444444444,431267.2010030864,10.84668152017012
40.231533,29.009218,41.47,-0.37,2.32,10.25,0.02,-0.0,-0.0,2024-05-03 14:07:48.140,11.519444444444444,431267.2010030864,10.515788130235412
40.231533,29.009218,41.47,-0.35,1.49,10.37,0.0,0.0,-0.01,2024-05-03 14:07:49.140,11.519444444444444,431267.2010030864,10.482342295498654
40.23162,29.009212,33.41,-1.22,1.59,9.91,0.03,0.01,-0.0,2024-05-03 14:07:50.140,9.280555555555555,279918.31211419747,10.110618180902689
40.23162,29.009212,33.41,-1.25,1.47,11.4,0.01,0.0,-0.01,2024-05-03 14:07:51.140,9.280555555555555,279918.31211419747,11.562153778600248
40.23162,29.009212,33.41,-0.35,1.56,10.32,0.02,0.0,-0.0,2024-05-03 14:07:52.140,9.280555555555555,279918.31211419747,10.443107774987292
40.231887,29.009206,12.3,-0.25,-0.77,10.16,0.01,-0.0,-0.02,2024-05-03 14:07:53.140,3.4166666666666665,37939.23611111111,10.19220290221893
40.229431,29.009071,21.96,0.66,-0.22,9.79,0.01,-0.0,0.04,2024-05-03 14:07:54.140,6.1,120932.49999999999,9.814687972625517
40.229431,29.009071,21.96,-0.03,-0.33,10.44,0.02,-0.0,0.04,2024-05-03 14:07:55.140,6.1,120932.49999999999,10.445257296974546
40.229324,29.009078,21.84,-0.17,-0.27,10.28,0.01,-0.0,0.0,2024-05-03 14:07:56.140,6.066666666666666,119614.44444444444,10.284950170029992
40.229267,29.009084,22.41,-0.26,-0.35,10.35,0.02,0.01,-0.01,2024-05-03 14:07:57.140,6.225,125939.53124999997,10.359179504188543
40.229152,29.009099,22.72,-0.72,-0.18,9.67,0.01,0.02,-0.02,2024-05-03 14:07:58.140,6.311111111111111,129447.9012345679,9.698438018567732
40.229152,29.009099,22.72,-0.45,0.01,9.67,0.01,0.01,-0.02,2024-05-03 14:07:59.140,6.311111111111111,129447.9012345679,9.680470029910738
40.229095,29.009105,22.48,-0.56,0.27,9.96,0.02,-0.0,-0.04,2024-05-03 14:08:00.140,6.2444444444444445,126727.53086419753,9.979383748508724
40.22874,29.009086,16.74,0.05,-0.76,10.32,0.01,-0.01,-0.01,2024-05-03 14:08:01.140,4.65,70273.12500000001,10.348067452428014
40.228698,29.009288,24.76,0.15,-0.26,10.49,0.0,-0.02,0.0,2024-05-03 14:08:02.140,6.877777777777778,153737.43827160494,10.494293687523712
40.228698,29.009288,24.76,-0.03,-0.44,9.79,0.01,-0.01,0.0,2024-05-03 14:08:03.140,6.877777777777778,153737.43827160494,9.79992857116826
40.228763,29.00929,25.04,0.46,0.03,9.7,0.01,-0.0,0.0,2024-05-03 14:08:04.140,6.955555555555556,157234.1975308642,9.710947430606346
40.228824,29.009294,25.15,0.17,-0.14,10.14,0.01,0.0,0.0,2024-05-03 14:08:05.140,6.986111111111111,158618.6824845679,10.142391236784352
40.228824,29.009294,25.15,-0.07,-0.36,10.27,0.01,0.0,0.01,2024-05-03 14:08:06.140,6.986111111111111,158618.6824845679,10.276546112386203
40.228824,29.009294,25.15,-0.0,-0.87,9.87,0.01,0.0,-0.01,2024-05-03 14:08:07.140,6.986111111111111,158618.6824845679,9.908269273692556
40.228889,29.009294,25.17,-0.55,-0.38,9.81,0.01,0.02,-0.02,2024-05-03 14:08:08.140,6.991666666666666,158871.05902777778,9.832751395209787
40.228954,29.00929,26.08,-0.82,-0.05,10.58,0.01,0.02,-0.01,2024-05-03 14:08:09.140,7.2444444444444445,170566.41975308643,10.611847153064353
40.228954,29.00929,26.08,-0.28,-0.31,11.33,-0.0,0.01,-0.01,2024-05-03 14:08:10.140,7.2444444444444445,170566.41975308643,11.337698179083795
40.229084,29.00929,25.15,-0.12,-0.15,10.06,-0.0,-0.01,-0.01,2024-05-03 14:08:11.140,6.986111111111111,158618.6824845679,10.061833828880301
40.229084,29.00929,25.15,0.04,-0.36,10.44,0.01,0.02,-0.02,2024-05-03 14:08:12.140,6.986111111111111,158618.6824845679,10.446281635108255
40.229148,29.00929,26.45,-0.76,-0.22,10.18,0.01,0.02,-0.01,2024-05-03 14:08:13.140,7.347222222222222,175440.44174382716,10.210700269814994
40.229148,29.00929,26.45,-0.12,-0.39,10.34,-0.0,-0.01,-0.01,2024-05-03 14:08:14.140,7.347222222222222,175440.44174382716,10.348048125129685
40.229423,29.009286,27.34,-0.66,0.08,10.84,0.02,-0.0,-0.04,2024-05-03 14:08:15.140,7.594444444444444,187445.65586419753,10.860368317879463
40.229423,29.009286,27.34,-1.11,0.43,10.65,0.0,0.0,-0.04,2024-05-03 14:08:16.140,7.594444444444444,187445.65586419753,10.716319330815036
40.229423,29.009286,27.34,-0.95,0.08,10.54,0.01,-0.0,-0.04,2024-05-03 14:08:17.140,7.594444444444444,187445.65586419753,10.58302886701156
40.22977,29.009199,15.24,1.19,-1.01,9.93,-0.01,-0.01,0.23,2024-05-03 14:08:18.140,4.233333333333333,58243.61111111112,10.051920214565971
40.229816,29.009212,19.3,1.02,-0.93,10.5,-0.01,0.0,0.2,2024-05-03 14:08:19.140,5.361111111111111,93409.91512345678,10.59033993788679
40.229816,29.009212,19.3,0.41,-0.93,10.69,-0.0,0.01,0.16,2024-05-03 14:08:20.140,5.361111111111111,93409.91512345678,10.738207485423253
40.229816,29.009212,19.3,0.2,-1.07,10.5,-0.01,0.02,0.09,2024-05-03 14:08:21.140,5.361111111111111,93409.91512345678,10.556273016552764
40.229816,29.009212,19.3,0.05,-1.14,10.02,0.01,0.02,0.07,2024-05-03 14:08:22.140,5.361111111111111,93409.91512345678,10.084765738479005
40.229869,29.009214,22.54,0.11,-1.4,10.24,0.01,0.01,0.03,2024-05-03 14:08:23.140,6.261111111111111,127404.9151234568,10.335845393580536
40.229869,29.009214,22.54,-0.2,-0.8,10.29,-0.0,0.01,0.01,2024-05-03 14:08:24.140,6.261111111111111,127404.9151234568,10.322988908257143
40.229869,29.009214,22.54,-0.33,-1.18,9.57,-0.0,0.01,-0.01,2024-05-03 14:08:25.140,6.261111111111111,127404.9151234568,9.648118987657647
40.229869,29.009214,22.54,-0.54,-1.41,10.82,0.01,0.02,-0.02,2024-05-03 14:08:26.140,6.261111111111111,127404.9151234568,10.924838671577719
40.229869,29.009214,22.54,-0.13,-0.64,10.09,0.02,0.01,-0.02,2024-05-03 14:08:27.140,6.261111111111111,127404.9151234568,10.111112698412574
40.229869,29.009214,22.54,-0.31,-0.62,10.98,0.03,0.03,-0.01,2024-05-03 14:08:28.140,6.261111111111111,127404.9151234568,11.001858933834773
40.229869,29.009214,22.54,-0.31,-0.78,9.63,0.0,0.0,-0.02,2024-05-03 14:08:29.140,6.261111111111111,127404.9151234568,9.666509194119666
40.229934,29.009214,25.87,0.03,-1.4,9.13,0.01,-0.0,-0.01,2024-05-03 14:08:30.140,7.186111111111111,167830.62692901233,9.236763502439587
40.229934,29.009214,25.87,-0.23,-1.2,8.83,0.02,-0.01,-0.01,2024-05-03 14:08:31.140,7.186111111111111,167830.62692901233,8.914134843045623
40.229934,29.009214,25.87,-0.06,-1.39,8.75,0.01,0.0,0.0,2024-05-03 14:08:32.140,7.186111111111111,167830.62692901233,8.859920992875727
40.230003,29.009216,29.09,-0.28,-0.41,10.73,-0.0,-0.01,-0.01,2024-05-03 14:08:33.140,8.080555555555556,212209.9787808642,10.741480344905911
40.230003,29.009216,29.09,-0.09,-0.51,11.68,0.02,-0.01,-0.01,2024-05-03 14:08:34.140,8.080555555555556,212209.9787808642,11.691475527066718
40.230003,29.009216,29.09,-0.19,-0.86,10.0,0.01,-0.01,-0.0,2024-05-03 14:08:35.140,8.080555555555556,212209.9787808642,10.038710076498873
40.230003,29.009216,29.09,-0.45,-0.51,11.2,0.02,-0.0,-0.02,2024-05-03 14:08:36.140,8.080555555555556,212209.9787808642,11.220632780730327
40.230163,29.009222,34.08,-0.17,-0.69,9.95,0.01,0.01,-0.0,2024-05-03 14:08:37.140,9.466666666666667,291257.77777777775,9.97534460557629
40.230163,29.009222,34.08,-0.18,-0.64,9.33,0.0,0.02,-0.01,2024-05-03 14:08:38.140,9.466666666666667,291257.77777777775,9.353657038827112
40.230163,29.009222,34.08,-0.34,-0.21,10.11,0.02,0.0,-0.01,2024-05-03 14:08:39.140,9.466666666666667,291257.77777777775,10.11789503800074
40.230163,29.009222,34.08,-0.95,-0.59,9.63,0.01,0.02,-0.01,2024-05-03 14:08:40.140,9.466666666666667,291257.77777777775,9.694715055121529
40.230255,29.009225,36.56,-0.76,-0.58,10.75,0.01,-0.0,-0.01,2024-05-03 14:08:41.140,10.155555555555555,335189.7530864197,10.792427901079535
40.230255,29.009225,36.56,-0.8,-0.37,10.53,-0.01,0.01,0.0,2024-05-03 14:08:42.140,10.155555555555555,335189.7530864197,10.566825445705062
40.230255,29.009225,36.56,0.02,-0.28,10.72,0.0,0.0,-0.01,2024-05-03 14:08:43.140,10.155555555555555,335189.7530864197,10.72367474329579
40.230255,29.009225,36.56,-0.09,-0.54,9.53,0.01,-0.01,-0.0,2024-05-03 14:08:44.140,10.155555555555555,335189.7530864197,9.545711078803926
40.23035,29.009231,36.8,-0.52,-0.21,10.12,0.01,-0.0,-0.02,2024-05-03 14:08:45.140,10.222222222222221,339604.9382716049,10.13552662667313
40.230529,29.009241,34.91,-0.6,0.43,9.43,-0.0,-0.0,-0.01,2024-05-03 14:08:46.140,9.697222222222223,305617.38618827163,9.458847709948607
40.230529,29.009241,34.91,-0.45,0.2,10.46,0.01,-0.0,-0.03,2024-05-03 14:08:47.140,9.697222222222223,305617.38618827163,10.471585362303076
40.230613,29.009246,32.8,-1.07,0.62,10.91,0.02,0.0,-0.04,2024-05-03 14:08:48.140,9.11111111111111,269790.1234567901,10.979863387128276
40.230758,29.009258,26.09,-0.26,0.81,10.64,-0.0,-0.01,-0.03,2024-05-03 14:08:49.140,7.247222222222222,170697.2472993827,10.673954281333605
40.231033,29.009265,16.08,0.57,0.08,10.36,-0.01,-0.02,0.19,2024-05-03 14:08:50.140,4.466666666666666,64841.11111111109,10.375977062426458
40.230968,29.008995,17.37,-0.35,-1.97,10.07,-0.0,0.01,-0.01,2024-05-03 14:08:51.140,4.825,75662.03125,10.26685443551237
40.230857,29.009,25.95,0.13,-1.65,8.47,-0.01,-0.01,-0.01,2024-05-03 14:08:52.140,7.208333333333333,168870.22569444444,8.630196985005615
40.230857,29.009,25.95,-0.42,-1.85,10.58,0.02,-0.01,-0.03,2024-05-03 14:08:53.140,7.208333333333333,168870.22569444444,10.748734809269415
40.230857,29.009,25.95,0.17,-0.8,8.61,0.01,0.02,-0.01,2024-05-03 14:08:54.140,7.208333333333333,168870.22569444444,8.648757136143898
40.230857,29.009,25.95,-0.69,-1.39,10.8,0.02,0.0,-0.03,2024-05-03 14:08:55.140,7.208333333333333,168870.22569444444,10.91092113434975
40.230857,29.009,25.95,0.11,-0.78,8.95,0.04,0.02,-0.03,2024-05-03 14:08:56.140,7.208333333333333,168870.22569444444,8.984597932016769
40.230857,29.009,25.95,-0.31,-1.17,10.43,0.02,-0.01,-0.02,2024-05-03 14:08:57.140,7.208333333333333,168870.22569444444,10.499995238094158
40.230857,29.009,25.95,-0.3,-0.68,11.5,0.02,-0.01,-0.02,2024-05-03 14:08:58.140,7.208333333333333,168870.22569444444,11.523992363760053
40.230857,29.009,25.95,-0.01,-1.61,8.22,0.0,-0.01,-0.0,2024-05-03 14:08:59.140,7.208333333333333,168870.22569444444,8.376192452421328
40.230789,29.009,28.63,0.26,-1.01,10.21,0.01,-0.0,0.01,2024-05-03 14:09:00.140,7.9527777777777775,205551.69174382713,10.26312817809463
40.230789,29.009,28.63,0.28,-1.26,9.19,0.01,-0.01,0.0,2024-05-03 14:09:01.140,7.9527777777777775,205551.69174382713,9.280199351307061
40.230789,29.009,28.63,-0.01,-0.76,11.26,0.0,0.01,-0.01,2024-05-03 14:09:02.140,7.9527777777777775,205551.69174382713,11.28562359818898
40.230789,29.009,28.63,-0.3,-1.21,9.16,0.03,0.01,-0.0,2024-05-03 14:09:03.140,7.9527777777777775,205551.69174382713,9.244441573183316
40.230789,29.009,28.63,-0.5,-1.26,9.73,0.01,0.01,-0.0,2024-05-03 14:09:04.140,7.9527777777777775,205551.69174382713,9.823975773585763
40.230789,29.009,28.63,0.55,-1.16,9.87,0.0,0.01,0.01,2024-05-03 14:09:05.140,7.9527777777777775,205551.69174382713,9.95314020799466
40.230712,29.009002,31.34,-0.17,-0.35,10.12,0.01,0.01,-0.01,2024-05-03 14:09:06.140,8.705555555555556,246306.76697530865,10.127477474672554
40.230628,29.009004,33.39,-0.49,-1.05,9.91,0.03,-0.01,-0.01,2024-05-03 14:09:07.140,9.275,279583.28125,9.977509709341305
40.230545,29.009006,34.61,-0.73,-0.88,9.91,0.01,-0.01,-0.01,2024-05-03 14:09:08.140,9.613888888888889,300387.293595679,9.975740574012537
40.230545,29.009006,34.61,0.09,-1.0,9.55,0.01,0.02,-0.01,2024-05-03 14:09:09.140,9.613888888888889,300387.293595679,9.602635055025262
40.230545,29.009006,34.61,0.1,-0.43,9.67,0.04,0.02,-0.01,2024-05-03 14:09:10.140,9.613888888888889,300387.293595679,9.68007231377948
40.230453,29.009008,36.56,-0.34,-0.39,10.73,0.0,0.01,-0.01,2024-05-03 14:09:11.140,10.155555555555555,335189.7530864197,10.742467128178705
40.230453,29.009008,36.56,-0.01,-0.78,9.5,0.01,0.01,-0.01,2024-05-03 14:09:12.140,10.155555555555555,335189.7530864197,9.531972513598642
40.230453,29.009008,36.56,-0.44,-0.85,10.85,0.01,-0.0,-0.01,2024-05-03 14:09:13.140,10.155555555555555,335189.7530864197,10.89213477698472
40.230361,29.009008,37.74,0.08,-0.53,9.45,0.01,0.0,0.0,2024-05-03 14:09:14.140,10.483333333333333,357175.9027777777,9.465188851787374
40.230361,29.009008,37.74,-0.71,-0.95,10.5,0.01,0.01,-0.01,2024-05-03 14:09:15.140,10.483333333333333,357175.9027777777,10.56676866407134
40.230361,29.009008,37.74,-0.23,-0.35,11.46,-0.01,-0.0,-0.01,2024-05-03 14:09:16.140,10.483333333333333,357175.9027777777,11.467650151622172
40.230361,29.009008,37.74,0.12,-0.76,10.14,0.01,0.01,-0.01,2024-05-03 14:09:17.140,10.483333333333333,357175.9027777777,10.169149423624377
40.230361,29.009008,37.74,-0.43,-0.37,10.32,0.0,-0.0,-0.02,2024-05-03 14:09:18.140,10.483333333333333,357175.9027777777,10.335579325804625
40.230262,29.009008,39.06,-0.07,-0.35,9.02,-0.0,-0.01,-0.01,2024-05-03 14:09:19.140,10.85,382598.125,9.027059321838978
40.230262,29.009008,39.06,-0.11,-0.62,10.74,0.02,-0.02,-0.01,2024-05-03 14:09:20.140,10.85,382598.125,10.75844319592756
40.230262,29.009008,39.06,-0.22,-0.75,9.87,0.01,-0.02,-0.02,2024-05-03 14:09:21.140,10.85,382598.125,9.90089894908538
40.230262,29.009008,39.06,-0.89,-0.65,11.35,0.02,-0.01,-0.01,2024-05-03 14:09:22.140,10.85,382598.125,11.403381077557654
40.230262,29.009008,39.06,-0.37,-0.82,10.42,0.03,-0.01,-0.01,2024-05-03 14:09:23.140,10.85,382598.125,10.458761877010108
40.230163,29.00901,40.06,-0.27,-0.6,9.85,0.0,0.0,-0.0,2024-05-03 14:09:24.140,11.127777777777778,402439.17438271607,9.871950161948753
40.230163,29.00901,40.06,-0.15,-0.44,11.14,0.02,0.0,-0.0,2024-05-03 14:09:25.140,11.127777777777778,402439.17438271607,11.149695063094775
40.230163,29.00901,40.06,-0.51,-0.25,11.4,0.02,0.02,-0.01,2024-05-03 14:09:26.140,11.127777777777778,402439.17438271607,11.414140353088357
40.23006,29.00901,40.06,-0.6,-0.51,11.08,0.02,0.01,-0.01,2024-05-03 14:09:27.140,11.127777777777778,402439.17438271607,11.107947605205922
40.23006,29.00901,40.06,0.0,-0.44,9.39,-0.01,0.0,-0.0,2024-05-03 14:09:28.140,11.127777777777778,402439.17438271607,9.400303186599889
40.23006,29.00901,40.06,-0.89,-0.34,10.32,0.02,0.01,-0.01,2024-05-03 14:09:29.140,11.127777777777778,402439.17438271607,10.363884406920024
40.23006,29.00901,40.06,-0.19,-0.48,10.25,0.01,0.01,-0.01,2024-05-03 14:09:30.140,11.127777777777778,402439.17438271607,10.262991766536695
40.229957,29.009012,41.91,0.36,-0.39,9.39,0.0,-0.02,-0.01,2024-05-03 14:09:31.140,11.641666666666667,440467.3090277778,9.404988038269906
40.229957,29.009012,41.91,-0.69,-0.14,10.38,0.02,0.01,-0.01,2024-05-03 14:09:32.140,11.641666666666667,440467.3090277778,10.403850248826153
40.22985,29.009014,42.52,-0.77,-0.42,10.35,-0.0,0.01,-0.01,2024-05-03 14:09:33.140,11.811111111111112,453382.62345679017,10.387097765978714
40.22985,29.009014,42.52,-0.48,0.01,9.57,0.01,0.01,0.0,2024-05-03 14:09:34.140,11.811111111111112,453382.62345679017,9.582035274408042
40.22985,29.009014,42.52,-0.2,-0.2,10.47,0.01,0.01,-0.01,2024-05-03 14:09:35.140,11.811111111111112,453382.62345679017,10.473819742577204
40.22985,29.009014,42.52,-0.2,0.45,11.48,-0.0,0.01,-0.01,2024-05-03 14:09:36.140,11.811111111111112,453382.62345679017,11.490556992591786
40.22985,29.009014,42.52,-0.1,-0.42,9.05,0.0,-0.0,-0.02,2024-05-03 14:09:37.140,11.811111111111112,453382.62345679017,9.06029248975992
40.229743,29.009014,42.32,-0.52,0.15,9.62,0.01,-0.0,-0.01,2024-05-03 14:09:38.140,11.755555555555556,449127.53086419764,9.635211466283446
40.229743,29.009014,42.32,-0.36,0.16,10.05,-0.01,-0.0,-0.02,2024-05-03 14:09:39.140,11.755555555555556,449127.53086419764,10.057718429146842
40.229743,29.009014,42.32,-0.67,-0.12,10.36,0.04,-0.01,-0.01,2024-05-03 14:09:40.140,11.755555555555556,449127.53086419764,10.382335960659335
40.229743,29.009014,42.32,-0.18,-0.34,9.67,0.01,-0.0,-0.02,2024-05-03 14:09:41.140,11.755555555555556,449127.53086419764,9.677649508015879
40.229743,29.009014,42.32,0.11,-0.49,9.94,-0.01,-0.02,-0.01,2024-05-03 14:09:42.140,11.755555555555556,449127.53086419764,9.952678031565172
40.229743,29.009014,42.32,-0.39,-0.48,9.02,0.02,-0.01,-0.02,2024-05-03 14:09:43.140,11.755555555555556,449127.53086419764,9.041178020590015
40.229534,29.009014,40.8,-0.06,-0.35,10.4,0.02,-0.01,0.0,2024-05-03 14:09:44.140,11.333333333333334,417444.4444444445,10.406060734014577
40.229534,29.009014,40.8,-0.07,-0.19,10.6,0.02,-0.02,-0.0,2024-05-03 14:09:45.140,11.333333333333334,417444.4444444445,10.60193378587133
40.229434,29.009014,40.3,-0.06,-0.55,8.83,0.02,-0.01,-0.0,2024-05-03 14:09:46.140,11.194444444444445,407275.6558641975,8.847315977176356
40.229434,29.009014,40.3,-0.14,-0.17,10.53,0.01,-0.02,-0.0,2024-05-03 14:09:47.140,11.194444444444445,407275.6558641975,10.532302692194143
40.229331,29.009014,41.08,-0.05,-0.81,9.61,-0.0,0.01,-0.01,2024-05-03 14:09:48.140,11.411111111111111,423193.7345679013,9.644205514193484
40.229331,29.009014,41.08,-0.68,-1.05,10.14,-0.01,0.01,-0.02,2024-05-03 14:09:49.140,11.411111111111111,423193.7345679013,10.216873298617342
40.229331,29.009014,41.08,-0.26,-0.89,10.38,-0.01,0.0,-0.01,2024-05-03 14:09:50.140,11.411111111111111,423193.7345679013,10.421329089900194
40.229331,29.009014,41.08,-0.38,-0.73,10.45,0.01,0.01,-0.01,2024-05-03 14:09:51.140,11.411111111111111,423193.7345679013,10.482356605267729
40.229225,29.009016,42.21,0.17,-0.53,9.15,0.02,-0.0,-0.0,2024-05-03 14:09:52.140,11.725,446795.78124999994,9.166913330014635
40.229225,29.009016,42.21,-0.11,-0.85,8.15,0.03,-0.0,-0.01,2024-05-03 14:09:53.140,11.725,446795.78124999994,8.194943562953927
40.229225,29.009016,42.21,0.0,-0.77,10.22,0.04,0.01,-0.0,2024-05-03 14:09:54.140,11.725,446795.78124999994,10.248965801484557
40.229118,29.009017,43.89,-0.74,-0.56,9.9,0.02,0.01,-0.0,2024-05-03 14:09:55.140,12.191666666666666,483069.39236111107,9.943399820986784
40.229118,29.009017,43.89,-0.0,-0.46,11.03,0.01,0.0,-0.01,2024-05-03 14:09:56.140,12.191666666666666,483069.39236111107,11.039587854625733
40.229118,29.009017,43.89,0.0,-0.65,10.29,0.02,-0.01,-0.0,2024-05-03 14:09:57.140,12.191666666666666,483069.39236111107,10.310509201780482
40.229118,29.009017,43.89,0.34,-0.34,9.46,0.02,-0.01,-0.01,2024-05-03 14:09:58.140,12.191666666666666,483069.39236111107,9.472211990870983
40.229003,29.009017,44.99,-0.1,-0.06,11.22,0.01,-0.02,-0.02,2024-05-03 14:09:59.140,12.497222222222222,507586.83063271607,11.220606044238432
40.229003,29.009017,44.99,-0.6,0.08,9.5,0.0,0.01,-0.01,2024-05-03 14:10:00.140,12.497222222222222,507586.83063271607,9.519264677484285
40.229003,29.009017,44.99,-0.44,-0.37,9.01,-0.0,0.0,-0.01,2024-05-03 14:10:01.140,12.497222222222222,507586.83063271607,9.0283221032482
40.229003,29.009017,44.99,-0.2,-0.25,9.66,0.02,0.0,-0.02,2024-05-03 14:10:02.140,12.497222222222222,507586.83063271607,9.665303926933701
40.229003,29.009017,44.99,-0.15,2.5,13.62,0.02,0.04,-0.01,2024-05-03 14:10:03.140,12.497222222222222,507586.83063271607,13.84835369276796
40.229003,29.009017,44.99,-0.6,1.25,10.67,0.04,0.01,-0.0,2024-05-03 14:10:04.140,12.497222222222222,507586.83063271607,10.759711892053616
40.228889,29.009019,45.26,-0.42,1.75,10.47,-0.01,0.01,-0.01,2024-05-03 14:10:05.140,12.572222222222223,513697.50771604944,10.623549312729716
40.228889,29.009019,45.26,0.15,1.59,9.39,-0.01,0.0,-0.01,2024-05-03 14:10:06.140,12.572222222222223,513697.50771604944,9.524846455455332
40.228889,29.009019,45.26,-0.51,1.88,9.02,0.01,0.0,-0.01,2024-05-03 14:10:07.140,12.572222222222223,513697.50771604944,9.22794126552613
40.228889,29.009019,45.26,-0.13,2.07,10.02,0.02,-0.02,-0.0,2024-05-03 14:10:08.140,12.572222222222223,513697.50771604944,10.232409295957623
40.228889,29.009019,45.26,0.0,1.39,11.46,0.03,-0.02,-0.0,2024-05-03 14:10:09.140,12.572222222222223,513697.50771604944,11.543989778235252
40.228889,29.009019,45.26,0.52,2.75,10.07,-0.02,-0.01,-0.01,2024-05-03 14:10:10.140,12.572222222222223,513697.50771604944,10.451688858744314
40.228889,29.009019,45.26,-0.2,2.63,7.52,-0.01,-0.02,0.01,2024-05-03 14:10:11.140,12.572222222222223,513697.50771604944,7.9691467548289
40.228889,29.009019,45.26,-0.72,1.85,11.8,0.02,-0.02,-0.01,2024-05-03 14:10:12.140,12.572222222222223,513697.50771604944,11.965822161473069
40.228889,29.009019,45.26,-0.17,0.96,10.28,-0.01,0.0,-0.03,2024-05-03 14:10:13.140,12.572222222222223,513697.50771604944,10.326127057130373
40.228889,29.009019,45.26,-0.02,1.59,10.49,0.01,0.01,-0.02,2024-05-03 14:10:14.140,12.572222222222223,513697.50771604944,10.609835059980904
40.228786,29.009019,39.91,0.17,2.0,12.04,-0.01,-0.01,-0.04,2024-05-03 14:10:15.140,11.08611111111111,399431.04359567893,12.2061664743686
40.228786,29.009019,39.91,-0.49,2.79,10.02,0.03,-0.0,-0.01,2024-05-03 14:10:16.140,11.08611111111111,399431.04359567893,10.412713383167713
40.228786,29.009019,39.91,-0.65,1.59,9.54,0.0,0.0,-0.01,2024-05-03 14:10:17.140,11.08611111111111,399431.04359567893,9.693410132662292
40.228786,29.009019,39.91,-0.32,2.28,8.31,-0.01,-0.01,-0.01,2024-05-03 14:10:18.140,11.08611111111111,399431.04359567893,8.623044705902899
40.228786,29.009019,39.91,-1.12,1.7,10.85,0.01,-0.0,-0.02,2024-05-03 14:10:19.140,11.08611111111111,399431.04359567893,11.03933421905506
40.228786,29.009019,39.91,1.09,1.38,11.61,-0.02,-0.02,-0.03,2024-05-03 14:10:20.140,11.08611111111111,399431.04359567893,11.742427347018161
40.228786,29.009019,39.91,-0.19,2.45,9.3,0.06,0.02,-0.01,2024-05-03 14:10:21.140,11.08611111111111,399431.04359567893,9.61917875912492
40.228786,29.009019,39.91,-0.27,1.39,8.46,0.01,-0.02,-0.0,2024-05-03 14:10:22.140,11.08611111111111,399431.04359567893,8.577680339112668
40.228786,29.009019,39.91,-0.76,1.72,11.61,0.03,0.0,-0.0,2024-05-03 14:10:23.140,11.08611111111111,399431.04359567893,11.76129669721838
40.228786,29.009019,39.91,-0.4,2.49,12.35,-0.01,-0.01,-0.01,2024-05-03 14:10:24.140,11.08611111111111,399431.04359567893,12.60486414048164
40.228786,29.009019,39.91,-0.45,1.79,9.31,0.01,0.0,-0.01,2024-05-03 14:10:25.140,11.08611111111111,399431.04359567893,9.491190652389193
40.228786,29.009019,39.91,0.01,1.64,9.59,0.02,-0.0,-0.01,2024-05-03 14:10:26.140,11.08611111111111,399431.04359567893,9.729224018389134
40.228786,29.009019,39.91,-0.09,2.14,10.81,0.0,-0.02,-0.02,2024-05-03 14:10:27.140,11.08611111111111,399431.04359567893,11.020154263893042
40.228786,29.009019,39.91,-0.32,2.07,11.01,-0.01,0.01,0.0,2024-05-03 14:10:28.140,11.08611111111111,399431.04359567893,11.207470722692074
40.228786,29.009019,39.91,-0.76,1.49,11.77,-0.01,0.0,-0.01,2024-05-03 14:10:29.140,11.08611111111111,399431.04359567893,11.888254707903931
40.228786,29.009019,39.91,-1.06,2.07,9.62,0.02,-0.0,-0.0,2024-05-03 14:10:30.140,11.08611111111111,399431.04359567893,9.897115741467308
40.228786,29.009019,39.91,0.32,2.12,10.5,0.01,0.01,-0.01,2024-05-03 14:10:31.140,11.08611111111111,399431.04359567893,10.716659927421416
40.228633,29.009017,24.71,-0.34,2.27,11.02,0.02,-0.0,-0.02,2024-05-03 14:10:32.140,6.863888888888889,153117.15470679014,11.256504786122555
40.228633,29.009017,24.71,0.08,3.15,5.18,0.02,0.07,-0.02,2024-05-03 14:10:33.140,6.863888888888889,153117.15470679014,6.063109763149599
40.228633,29.009017,24.71,0.03,2.38,10.38,0.0,-0.04,-0.0,2024-05-03 14:10:34.140,6.863888888888889,153117.15470679014,10.649399044077558
40.228633,29.009017,24.71,-0.21,2.84,10.3,0.01,-0.01,-0.02,2024-05-03 14:10:35.140,6.863888888888889,153117.15470679014,10.686425969424953
40.228633,29.009017,24.71,-0.22,2.11,10.19,0.02,-0.01,-0.01,2024-05-03 14:10:36.140,6.863888888888889,153117.15470679014,10.408486921738433
40.228591,29.009017,14.8,0.4,1.89,9.7,-0.0,-0.01,-0.02,2024-05-03 14:10:37.140,4.111111111111111,54929.012345679,9.890505548251818
40.228569,29.009016,5.43,-0.4,1.71,10.32,0.01,-0.0,-0.01,2024-05-03 14:10:38.140,1.5083333333333333,7393.975694444443,10.468357082178656
40.228569,29.009017,0.09,-0.25,-0.9,10.29,0.01,-0.0,-0.01,2024-05-03 14:10:39.140,0.025,2.0312500000000004,10.332308551335466
40.228542,29.009019,8.02,-0.21,-0.83,10.06,-0.0,-0.01,-0.01,2024-05-03 14:10:40.140,2.227777777777778,16129.729938271605,10.096365682759318
40.228515,29.009019,10.37,-0.39,-0.58,10.5,0.01,0.02,-0.01,2024-05-03 14:10:41.140,2.8805555555555555,26967.20100308642,10.523236194251272
40.228515,29.009019,10.37,0.38,-0.94,10.4,0.01,-0.01,-0.01,2024-05-03 14:10:42.140,2.8805555555555555,26967.20100308642,10.449306197063995
40.228412,29.009019,16.33,0.33,-0.28,10.27,0.02,-0.02,-0.01,2024-05-03 14:10:43.140,4.5361111111111105,66872.98804012344,10.279114747875909
40.228412,29.009019,16.33,-0.03,-0.62,10.3,-0.0,-0.01,-0.01,2024-05-03 14:10:44.140,4.5361111111111105,66872.98804012344,10.31868693196959
40.228366,29.009019,17.74,-0.51,-0.66,9.62,0.01,0.01,-0.01,2024-05-03 14:10:45.140,4.927777777777778,78919.72993827162,9.656091341738643
40.228321,29.009019,18.87,-0.49,-0.22,9.39,0.03,0.0,-0.01,2024-05-03 14:10:46.140,5.241666666666666,89293.97569444442,9.40534954161726
40.228321,29.009019,18.87,0.11,-0.56,10.59,-0.01,0.02,-0.0,2024-05-03 14:10:47.140,5.241666666666666,89293.97569444442,10.605366566036272
40.228321,29.009019,18.87,-0.82,-0.53,10.21,0.01,0.01,-0.01,2024-05-03 14:10:48.140,5.241666666666666,89293.97569444442,10.256578376827235
40.228321,29.009019,18.87,-0.38,-0.5,10.14,-0.01,-0.01,-0.0,2024-05-03 14:10:49.140,5.241666666666666,89293.97569444442,10.159429117819565
40.228271,29.009017,19.26,0.32,-0.07,10.42,0.02,-0.0,-0.0,2024-05-03 14:10:50.140,5.35,93023.12499999999,10.425147480971193
40.228271,29.009017,19.26,-0.07,-0.04,10.59,0.03,0.0,-0.0,2024-05-03 14:10:51.140,5.35,93023.12499999999,10.590306888848877
40.228271,29.009017,19.26,0.0,-0.35,10.66,0.01,0.0,-0.01,2024-05-03 14:10:52.140,5.35,93023.12499999999,10.665744230947974
40.228221,29.009016,19.72,-0.18,-0.28,10.57,0.02,-0.0,-0.0,2024-05-03 14:10:53.140,5.477777777777778,97519.66049382716,10.575239949996407
40.228172,29.009016,19.54,-0.5,-0.49,9.66,0.0,0.0,-0.01,2024-05-03 14:10:54.140,5.427777777777778,95747.50771604938,9.685334274045475
40.228126,29.009014,19.32,-0.74,-0.22,10.29,0.02,-0.0,-0.01,2024-05-03 14:10:55.140,5.366666666666666,93603.6111111111,10.318919517081234
40.228126,29.009014,19.32,-0.4,-0.18,10.09,0.02,0.0,-0.0,2024-05-03 14:10:56.140,5.366666666666666,93603.6111111111,10.099529692020317
40.228126,29.009014,19.32,0.09,0.16,10.16,0.03,0.02,-0.01,2024-05-03 14:10:57.140,5.366666666666666,93603.6111111111,10.161658329229535
40.228076,29.009014,19.48,0.55,-0.17,10.94,-0.01,-0.02,-0.02,2024-05-03 14:10:58.140,5.411111111111111,95160.40123456791,10.955135781906128
40.228076,29.009014,19.48,-0.7,-0.3,10.27,0.0,-0.01,-0.0,2024-05-03 14:10:59.140,5.411111111111111,95160.40123456791,10.29819887164741
40.227909,29.009191,15.61,1.62,-0.93,10.36,0.0,0.02,0.28,2024-05-03 14:11:00.140,4.336111111111111,61106.04359567902,10.527055618737842
40.227909,29.009191,15.61,1.03,-0.85,10.5,-0.01,0.01,0.25,2024-05-03 14:11:01.140,4.336111111111111,61106.04359567902,10.584583128305054
40.227909,29.009191,15.61,0.48,-1.11,9.75,0.01,0.02,0.21,2024-05-03 14:11:02.140,4.336111111111111,61106.04359567902,9.82471373628769
40.227909,29.009191,15.61,0.53,-0.88,10.41,-0.01,0.03,0.2,2024-05-03 14:11:03.140,4.336111111111111,61106.04359567902,10.460564038329865
40.227909,29.009191,15.61,0.42,-1.23,10.4,-0.02,0.02,0.18,2024-05-03 14:11:04.140,4.336111111111111,61106.04359567902,10.48090167876791
40.227951,29.009201,18.61,0.31,-0.92,9.93,0.02,0.02,0.15,2024-05-03 14:11:05.140,5.169444444444444,86850.25655864197,9.977344336044537
40.227951,29.009201,18.61,0.21,-1.19,10.26,-0.03,0.03,0.12,2024-05-03 14:11:06.140,5.169444444444444,86850.25655864197,10.330914770725775
40.227951,29.009201,18.61,0.22,-0.97,10.65,-0.01,0.02,0.1,2024-05-03 14:11:07.140,5.169444444444444,86850.25655864197,10.696345170197155
40.227951,29.009201,18.61,-0.12,-1.49,9.83,-0.01,0.03,0.08,2024-05-03 14:11:08.140,5.169444444444444,86850.25655864197,9.943007593278805
40.227951,29.009201,18.61,0.03,-1.07,10.41,-0.01,0.02,0.04,2024-05-03 14:11:09.140,5.169444444444444,86850.25655864197,10.464888914842813
40.227951,29.009201,18.61,-0.47,-1.36,9.8,-0.01,0.01,0.02,2024-05-03 14:11:10.140,5.169444444444444,86850.25655864197,9.905074457064925
40.228008,29.009204,24.09,-0.14,-1.28,11.23,0.0,-0.01,0.01,2024-05-03 14:11:11.140,6.691666666666666,145529.80902777778,11.303579079212035
40.228008,29.009204,24.09,-0.87,-0.88,10.94,0.02,0.02,-0.0,2024-05-03 14:11:12.140,6.691666666666666,145529.80902777778,11.00976384851192
40.228008,29.009204,24.09,0.13,-1.34,8.86,-0.02,0.01,-0.0,2024-05-03 14:11:13.140,6.691666666666666,145529.80902777778,8.961701847305566
40.228008,29.009204,24.09,-0.31,-1.56,9.27,-0.02,-0.01,-0.01,2024-05-03 14:11:14.140,6.691666666666666,145529.80902777778,9.405455863486894
40.228008,29.009204,24.09,-0.48,-0.84,10.96,0.02,0.02,-0.01,2024-05-03 14:11:15.140,6.691666666666666,145529.80902777778,11.002617870307049
40.228008,29.009204,24.09,-0.06,-0.98,11.69,0.02,0.02,-0.0,2024-05-03 14:11:16.140,6.691666666666666,145529.80902777778,11.731159362995628
40.228008,29.009204,24.09,-0.16,-0.93,8.58,0.01,0.02,-0.01,2024-05-03 14:11:17.140,6.691666666666666,145529.80902777778,8.63173794782951
40.228069,29.009201,24.96,-0.42,-1.35,9.66,0.0,-0.0,-0.01,2024-05-03 14:11:18.140,6.933333333333334,156231.11111111112,9.762914523849936
40.228069,29.009201,24.96,-0.05,-1.53,9.04,0.0,-0.01,-0.02,2024-05-03 14:11:19.140,6.933333333333334,156231.11111111112,9.16869674490328
40.228069,29.009201,24.96,-0.36,-1.25,8.84,0.02,0.0,-0.01,2024-05-03 14:11:20.140,6.933333333333334,156231.11111111112,8.935194457872756
40.228069,29.009201,24.96,-0.54,-1.0,10.9,0.02,0.01,-0.01,2024-05-03 14:11:21.140,6.933333333333334,156231.11111111112,10.959087553259167
40.228069,29.009201,24.96,-0.26,-0.92,11.68,0.01,-0.02,-0.02,2024-05-03 14:11:22.140,6.933333333333334,156231.11111111112,11.719061395862724
40.228069,29.009201,24.96,-0.48,-0.93,10.93,0.0,-0.01,-0.01,2024-05-03 14:11:23.140,6.933333333333334,156231.11111111112,10.979990892528098
40.228069,29.009201,24.96,-0.07,-1.33,9.89,0.03,-0.01,-0.01,2024-05-03 14:11:24.140,6.933333333333334,156231.11111111112,9.979273520652693
40.228069,29.009201,24.96,-0.67,-1.41,10.82,-0.02,-0.0,-0.01,2024-05-03 14:11:25.140,6.933333333333334,156231.11111111112,10.932035492075572
40.228137,29.009195,27.5,-0.09,-0.6,10.27,0.0,-0.0,-0.01,2024-05-03 14:11:26.140,7.638888888888889,189646.02623456792,10.28790552056151
40.228137,29.009195,27.5,-0.02,-1.14,12.04,0.04,0.03,-0.0,2024-05-03 14:11:27.140,7.638888888888889,189646.02623456792,12.093866213911909
40.228137,29.009195,27.5,-0.54,-1.24,9.66,0.01,0.0,-0.01,2024-05-03 14:11:28.140,7.638888888888889,189646.02623456792,9.754219599742463
40.228214,29.009191,31.21,-0.45,-1.61,10.67,0.02,-0.01,-0.0,2024-05-03 14:11:29.140,8.669444444444444,244267.6176697531,10.800162035821499
40.228302,29.009189,35.47,-0.27,-1.11,9.93,0.01,0.01,-0.02,2024-05-03 14:11:30.140,9.852777777777778,315500.9972993827,9.995493984791347
40.228302,29.009189,35.47,-0.49,-1.48,10.25,-0.0,0.0,-0.02,2024-05-03 14:11:31.140,9.852777777777778,315500.9972993827,10.367883101192836
40.228302,29.009189,35.47,0.08,-0.91,9.46,0.01,-0.01,-0.01,2024-05-03 14:11:32.140,9.852777777777778,315500.9972993827,9.504004419190894
40.228302,29.009189,35.47,-0.06,-1.13,10.39,0.03,0.01,-0.01,2024-05-03 14:11:33.140,9.852777777777778,315500.9972993827,10.45144009215955
40.228302,29.009189,35.47,-0.47,-0.9,9.97,0.01,0.0,-0.02,2024-05-03 14:11:34.140,9.852777777777778,315500.9972993827,10.021566743778141
40.228397,29.009187,39.43,-0.32,-0.71,11.66,0.01,0.0,-0.01,2024-05-03 14:11:35.140,10.952777777777778,389880.8584104938,11.685978778005717
40.228397,29.009187,39.43,-0.27,-1.03,10.0,0.01,0.0,-0.01,2024-05-03 14:11:36.140,10.952777777777778,389880.8584104938,10.056530216729824
40.228397,29.009187,39.43,-0.61,-1.42,11.27,0.03,0.01,-0.0,2024-05-03 14:11:37.140,10.952777777777778,389880.8584104938,11.375473616513732
40.228504,29.009185,42.47,-0.42,-0.49,10.59,0.02,0.01,-0.01,2024-05-03 14:11:38.140,11.797222222222222,452316.969521605,10.609646553962106
40.228622,29.009189,46.8,-0.47,-1.29,11.34,0.02,0.03,-0.02,2024-05-03 14:11:39.140,13.0,549250.0,11.422810512303878
40.228622,29.009189,46.8,-0.05,-1.24,12.58,-0.01,0.02,-0.01,2024-05-03 14:11:40.140,13.0,549250.0,12.641064037493047
40.228622,29.009189,46.8,-0.06,-0.85,10.61,0.01,0.01,-0.01,2024-05-03 14:11:41.140,13.0,549250.0,10.644162719537878
40.228622,29.009189,46.8,-0.3,-0.67,11.26,0.03,0.02,-0.01,2024-05-03 14:11:42.140,13.0,549250.0,11.28390446609683
40.228622,29.009189,46.8,-0.3,-0.76,10.75,0.02,-0.02,-0.01,2024-05-03 14:11:43.140,13.0,549250.0,10.78100644652437
40.22874,29.009191,48.54,0.16,-1.2,10.18,0.02,-0.02,-0.01,2024-05-03 14:11:44.140,13.483333333333333,590850.9027777776,10.251731561058355
40.22874,29.009191,48.54,0.08,-0.62,9.87,0.02,-0.02,0.0,2024-05-03 14:11:45.140,13.483333333333333,590850.9027777776,9.889777550582217
40.22874,29.009191,48.54,-0.01,-0.85,8.79,0.03,-0.01,-0.01,2024-05-03 14:11:46.140,13.483333333333333,590850.9027777776,8.831007869999889
40.22874,29.009191,48.54,-0.53,-1.33,10.92,-0.01,-0.01,-0.02,2024-05-03 14:11:47.140,13.483333333333333,590850.9027777776,11.013455406910222
40.228866,29.009191,51.02,-0.21,-0.99,9.08,0.04,0.02,-0.0,2024-05-03 14:11:48.140,14.172222222222222,652768.6188271606,9.136224603193597
40.228866,29.009191,51.02,-0.24,-0.72,10.01,0.04,0.0,-0.0,2024-05-03 14:11:49.140,14.172222222222222,652768.6188271606,10.038729999357487
40.228866,29.009191,51.02,-0.14,-0.54,10.86,0.04,0.01,-0.01,2024-05-03 14:11:50.140,14.172222222222222,652768.6188271606,10.874318369442747
40.228866,29.009191,51.02,-0.19,-0.81,10.38,0.0,-0.01,-0.01,2024-05-03 14:11:51.140,14.172222222222222,652768.6188271606,10.413289585908961
40.228866,29.009191,51.02,-0.23,-1.46,10.28,-0.0,-0.01,-0.01,2024-05-03 14:11:52.140,14.172222222222222,652768.6188271606,10.385706523872123
40.228866,29.009191,51.02,-0.33,-0.99,9.44,0.01,0.02,-0.01,2024-05-03 14:11:53.140,14.172222222222222,652768.6188271606,9.497504935508061
40.228866,29.009191,51.02,-0.58,-0.65,11.9,-0.01,0.01,-0.01,2024-05-03 14:11:54.140,14.172222222222222,652768.6188271606,11.93184394802413
40.228866,29.009191,51.02,-0.51,-0.5,11.05,-0.01,0.0,-0.0,2024-05-03 14:11:55.140,14.172222222222222,652768.6188271606,11.073057391705328
40.229,29.009193,54.12,-0.43,-0.76,10.0,0.0,0.0,-0.02,2024-05-03 14:11:56.140,15.033333333333333,734503.6111111111,10.038052599981732
40.229,29.009193,54.12,-0.07,-0.64,11.43,0.01,-0.0,-0.0,2024-05-03 14:11:57.140,15.033333333333333,734503.6111111111,11.448117749219739
40.229,29.009193,54.12,-0.39,-0.83,9.81,0.03,-0.0,-0.01,2024-05-03 14:11:58.140,15.033333333333333,734503.6111111111,9.852771183783778
40.229,29.009193,54.12,-0.52,-0.35,11.63,0.03,0.03,-0.01,2024-05-03 14:11:59.140,15.033333333333333,734503.6111111111,11.646879410382853
40.229,29.009193,54.12,0.13,-0.98,9.56,0.02,-0.02,-0.0,2024-05-03 14:12:00.140,15.033333333333333,734503.6111111111,9.610978097987738
40.229,29.009193,54.12,-0.64,-0.95,11.08,0.02,-0.01,-0.01,2024-05-03 14:12:01.140,15.033333333333333,734503.6111111111,11.139052922039648
40.229,29.009193,54.12,-0.46,-0.68,11.29,0.0,-0.02,-0.01,2024-05-03 14:12:02.140,15.033333333333333,734503.6111111111,11.319810069078013
40.229137,29.009193,55.58,0.19,-1.03,8.77,0.01,0.01,-0.0,2024-05-03 14:12:03.140,15.438888888888888,774667.6929012345,8.832321325676507
40.229137,29.009193,55.58,-0.31,-0.69,10.65,0.04,0.0,0.0,2024-05-03 14:12:04.140,15.438888888888888,774667.6929012345,10.67683005390645
40.229282,29.009193,57.43,-0.15,-0.31,10.66,0.03,0.01,-0.01,2024-05-03 14:12:05.140,15.952777777777778,827096.1361882716,10.665561401070269
40.229282,29.009193,57.43,-1.6,-0.09,11.0,0.02,0.04,-0.01,2024-05-03 14:12:06.140,15.952777777777778,827096.1361882716,11.116118927035641
40.229282,29.009193,57.43,0.01,-0.89,10.1,0.01,0.0,-0.01,2024-05-03 14:12:07.140,15.952777777777778,827096.1361882716,10.13914197553225
40.229282,29.009193,57.43,-0.34,-0.83,9.4,0.02,0.01,-0.01,2024-05-03 14:12:08.140,15.952777777777778,827096.1361882716,9.442695589713777
40.229282,29.009193,57.43,-0.04,-0.82,10.16,0.0,-0.01,-0.01,2024-05-03 14:12:09.140,15.952777777777778,827096.1361882716,10.193115323589742
40.229282,29.009193,57.43,-0.12,-0.48,9.73,0.02,-0.02,-0.01,2024-05-03 14:12:10.140,15.952777777777778,827096.1361882716,9.742571529118994
40.229427,29.009195,59.06,-0.13,-0.41,11.51,0.01,-0.02,-0.01,2024-05-03 14:12:11.140,16.405555555555555,874712.322530864,11.518033686354629
40.229427,29.009195,59.06,-0.52,0.34,9.56,0.0,0.0,-0.01,2024-05-03 14:12:12.140,16.405555555555555,874712.322530864,9.580167013157965
40.229427,29.009195,59.06,-0.37,-0.29,11.06,0.0,0.01,-0.0,2024-05-03 14:12:13.140,16.405555555555555,874712.322530864,11.069986449856206
40.229427,29.009195,59.06,-0.55,-0.06,11.29,0.0,-0.01,-0.01,2024-05-03 14:12:14.140,16.405555555555555,874712.322530864,11.303548115525496
40.229427,29.009195,59.06,-0.71,-0.7,10.43,0.0,0.01,-0.01,2024-05-03 14:12:15.140,16.405555555555555,874712.322530864,10.477547422942068
40.229427,29.009195,59.06,-0.21,0.11,9.9,0.01,-0.02,-0.01,2024-05-03 14:12:16.140,16.405555555555555,874712.322530864,9.902837977064959
40.229427,29.009195,59.06,0.11,0.31,10.46,0.02,-0.01,-0.01,2024-05-03 14:12:17.140,16.405555555555555,874712.322530864,10.465170806059499
40.229427,29.009195,59.06,-0.75,-0.22,10.07,-0.02,-0.0,-0.01,2024-05-03 14:12:18.140,16.405555555555555,874712.322530864,10.100287124631656
40.229583,29.009197,60.88,-0.37,-0.21,9.04,0.01,-0.0,-0.02,2024-05-03 14:12:19.140,16.91111111111111,929453.4567901236,9.050005524860191
40.229583,29.009197,60.88,-0.19,-0.02,10.67,0.01,0.01,-0.02,2024-05-03 14:12:20.140,16.91111111111111,929453.4567901236,10.671710265932074
40.229583,29.009197,60.88,-0.73,-0.33,10.75,-0.01,0.0,-0.01,2024-05-03 14:12:21.140,16.91111111111111,929453.4567901236,10.779809831346748
40.229583,29.009197,60.88,0.19,0.04,10.35,0.0,-0.0,-0.01,2024-05-03 14:12:22.140,16.91111111111111,929453.4567901236,10.351821095826569
40.229583,29.009197,60.88,-0.31,0.15,8.39,0.01,0.01,-0.01,2024-05-03 14:12:23.140,16.91111111111111,929453.4567901236,8.39706496342621
40.229583,29.009197,60.88,-0.84,0.13,9.76,-0.03,-0.0,-0.01,2024-05-03 14:12:24.140,16.91111111111111,929453.4567901236,9.796943400877643
40.229583,29.009197,60.88,-0.48,0.11,12.74,0.0,0.0,-0.01,2024-05-03 14:12:25.140,16.91111111111111,929453.4567901236,12.749513716216788
40.229732,29.009197,59.84,-0.36,-0.14,9.74,0.02,-0.0,-0.01,2024-05-03 14:12:26.140,16.622222222222224,897969.3827160494,9.747656128526488
40.229732,29.009197,59.84,0.02,0.09,10.55,0.03,0.01,-0.0,2024-05-03 14:12:27.140,16.622222222222224,897969.3827160494,10.550402835911054
40.229732,29.009197,59.84,-0.82,0.09,10.16,-0.02,-0.01,-0.01,2024-05-03 14:12:28.140,16.622222222222224,897969.3827160494,10.193434161262827
40.229881,29.009197,59.26,-0.44,0.32,10.0,0.04,0.0,-0.02,2024-05-03 14:12:29.140,16.461111111111112,880646.5817901236,10.014789064179036
40.229881,29.009197,59.26,-0.3,0.26,9.78,-0.01,-0.03,-0.01,2024-05-03 14:12:30.140,16.461111111111112,880646.5817901236,9.788053943455767
40.229881,29.009197,59.26,-0.02,0.86,10.38,-0.01,-0.02,-0.0,2024-05-03 14:12:31.140,16.461111111111112,880646.5817901236,10.415584477118891
40.229881,29.009197,59.26,-0.57,0.4,10.26,0.0,-0.01,-0.02,2024-05-03 14:12:32.140,16.461111111111112,880646.5817901236,10.283603454042751
40.230026,29.009201,56.67,-0.85,0.64,10.55,0.03,-0.0,-0.0,2024-05-03 14:12:33.140,15.741666666666667,805350.2256944445,10.603518284041387
40.230026,29.009201,56.67,-0.36,0.86,10.48,-0.01,-0.0,-0.01,2024-05-03 14:12:34.140,15.741666666666667,805350.2256944445,10.521387741167988
40.230026,29.009201,56.67,-0.62,0.62,10.0,0.03,0.01,-0.02,2024-05-03 14:12:35.140,15.741666666666667,805350.2256944445,10.038366400963854
40.230026,29.009201,56.67,-0.74,0.38,9.88,-0.0,0.02,-0.01,2024-05-03 14:12:36.140,15.741666666666667,805350.2256944445,9.914958396281852
40.230026,29.009201,56.67,-0.41,0.14,9.75,0.01,0.02,-0.02,2024-05-03 14:12:37.140,15.741666666666667,805350.2256944445,9.759620894276582
40.230167,29.009206,54.62,-0.49,0.7,10.95,-0.02,0.01,-0.02,2024-05-03 14:12:38.140,15.172222222222222,748138.063271605,10.983287303899502
40.230167,29.009206,54.62,-0.78,0.44,9.76,0.01,0.01,-0.02,2024-05-03 14:12:39.140,15.172222222222222,748138.063271605,9.800999948984797
40.230167,29.009206,54.62,-0.49,0.43,9.83,0.05,0.02,-0.01,2024-05-03 14:12:40.140,15.172222222222222,748138.063271605,9.851593779688645
40.230167,29.009206,54.62,-0.25,0.97,9.79,0.01,0.02,-0.01,2024-05-03 14:12:41.140,15.172222222222222,748138.063271605,9.841112741961652
40.230167,29.009206,54.62,-1.19,1.65,10.24,0.03,0.01,-0.02,2024-05-03 14:12:42.140,15.172222222222222,748138.063271605,10.440124520330205
40.230167,29.009206,54.62,-1.14,-0.02,10.69,0.0,0.0,-0.01,2024-05-03 14:12:43.140,15.172222222222222,748138.063271605,10.75063253952994
40.230167,29.009206,54.62,-0.13,0.91,11.0,-0.04,-0.02,-0.01,2024-05-03 14:12:44.140,15.172222222222222,748138.063271605,11.03834226684424
40.230167,29.009206,54.62,-0.52,0.79,9.07,0.01,-0.02,-0.02,2024-05-03 14:12:45.140,15.172222222222222,748138.063271605,9.11917759449831
40.230167,29.009206,54.62,-0.36,0.33,11.52,0.02,-0.02,-0.0,2024-05-03 14:12:46.140,15.172222222222222,748138.063271605,11.530346915856434
40.230293,29.009208,49.47,-0.28,0.5,11.71,-0.0,-0.01,-0.0,2024-05-03 14:12:47.140,13.741666666666667,613708.5590277779,11.72401381780148
40.230293,29.009208,49.47,-0.53,0.67,9.54,0.04,-0.03,-0.0,2024-05-03 14:12:48.140,13.741666666666667,613708.5590277779,9.578173103468114
40.230415,29.009212,47.13,-0.8,0.8,10.36,0.01,-0.0,-0.01,2024-05-03 14:12:49.140,13.091666666666667,557023.1423611111,10.421592968447769
40.230415,29.009212,47.13,-0.51,0.52,8.66,0.01,-0.0,-0.02,2024-05-03 14:12:50.140,13.091666666666667,557023.1423611111,8.690575354946299
40.230415,29.009212,47.13,-0.3,0.62,10.48,0.01,0.01,-0.02,2024-05-03 14:12:51.140,13.091666666666667,557023.1423611111,10.50260919962273
40.230529,29.009218,44.56,-0.77,1.02,9.72,0.03,0.01,-0.01,2024-05-03 14:12:52.140,12.377777777777778,497930.4938271605,9.803657480756863
40.230529,29.009218,44.56,-0.74,0.86,10.32,0.02,0.01,-0.02,2024-05-03 14:12:53.140,12.377777777777778,497930.4938271605,10.382177035670313
40.230529,29.009218,44.56,-0.6,0.65,10.63,0.0,-0.01,-0.03,2024-05-03 14:12:54.140,12.377777777777778,497930.4938271605,10.666742708062289
40.230529,29.009218,44.56,-0.24,1.02,10.31,0.01,-0.02,-0.03,2024-05-03 14:12:55.140,12.377777777777778,497930.4938271605,10.363112466821926
40.230636,29.009227,41.24,-0.7,0.84,10.13,0.02,-0.01,-0.03,2024-05-03 14:12:56.140,11.455555555555556,426496.69753086416,10.188841936157417
40.230636,29.009227,41.24,-0.55,1.13,10.05,-0.0,-0.02,-0.03,2024-05-03 14:12:57.140,11.455555555555556,426496.69753086416,10.12827231071519
40.230636,29.009227,41.24,-0.72,0.68,10.65,0.01,-0.02,-0.03,2024-05-03 14:12:58.140,11.455555555555556,426496.69753086416,10.695947830837621
40.230823,29.009248,33.5,0.25,1.08,9.6,0.02,-0.01,-0.01,2024-05-03 14:12:59.140,9.305555555555555,281428.4336419753,9.663793251099694
40.230823,29.009248,33.5,-0.49,0.95,10.19,0.01,-0.0,0.0,2024-05-03 14:13:00.140,9.305555555555555,281428.4336419753,10.2459113796675
40.231185,29.00914,14.35,1.3,0.11,9.88,0.01,0.0,0.31,2024-05-03 14:13:01.140,3.986111111111111,51639.515817901236,9.965766403041966
40.231189,29.009096,14.06,0.95,0.34,9.92,0.0,-0.01,0.32,2024-05-03 14:13:02.140,3.9055555555555554,49573.43364197531,9.971183480409936
40.231189,29.009096,14.06,0.98,0.26,10.0,0.02,0.01,0.3,2024-05-03 14:13:03.140,3.9055555555555554,49573.43364197531,10.051268576652403
40.231189,29.009096,14.06,0.68,0.14,9.62,0.02,0.0,0.31,2024-05-03 14:13:04.140,3.9055555555555554,49573.43364197531,9.645019440104825
40.231189,29.009096,14.06,0.76,0.01,9.53,0.01,-0.01,0.31,2024-05-03 14:13:05.140,3.9055555555555554,49573.43364197531,9.560261502699598
40.231105,29.008983,15.69,1.1,-1.33,10.09,-0.01,0.02,0.23,2024-05-03 14:13:06.140,4.358333333333333,61733.97569444445,10.236552153923702
40.231105,29.008983,15.69,0.9,-1.28,10.59,0.0,0.02,0.2,2024-05-03 14:13:07.140,4.358333333333333,61733.97569444445,10.704975478720163
40.231105,29.008983,15.69,1.03,-1.57,9.45,-0.03,0.02,0.18,2024-05-03 14:13:08.140,4.358333333333333,61733.97569444445,9.634744417990547
40.231105,29.008983,15.69,0.58,-1.21,10.62,-0.03,0.02,0.16,2024-05-03 14:13:09.140,4.358333333333333,61733.97569444445,10.704433660871555
40.231105,29.008983,15.69,0.17,-1.27,10.77,-0.0,0.02,0.15,2024-05-03 14:13:10.140,4.358333333333333,61733.97569444445,10.845953162355073
40.231056,29.008983,20.52,0.21,-0.91,10.16,0.03,0.03,0.09,2024-05-03 14:13:11.140,5.7,105592.5,10.202832939924088
40.231056,29.008983,20.52,0.01,-1.74,9.72,0.01,0.02,0.05,2024-05-03 14:13:12.140,5.7,105592.5,9.874517709741575
40.231056,29.008983,20.52,-0.54,-1.27,10.42,-0.02,0.01,-0.0,2024-05-03 14:13:13.140,5.7,105592.5,10.510989487198623
40.231056,29.008983,20.52,-0.57,-1.28,10.24,0.01,0.02,-0.04,2024-05-03 14:13:14.140,5.7,105592.5,10.335419681851338
40.230998,29.008987,23.61,-0.45,-0.96,8.7,0.02,-0.02,-0.03,2024-05-03 14:13:15.140,6.558333333333334,139788.14236111112,8.76436535066858
40.230998,29.008987,23.61,-0.4,-0.99,10.25,0.02,0.03,-0.05,2024-05-03 14:13:16.140,6.558333333333334,139788.14236111112,10.30546456982896
40.230998,29.008987,23.61,-0.12,-1.34,9.36,-0.0,0.0,-0.04,2024-05-03 14:13:17.140,6.558333333333334,139788.14236111112,9.456193737440026
40.230998,29.008987,23.61,-0.31,-1.15,8.84,0.04,0.03,-0.05,2024-05-03 14:13:18.140,6.558333333333334,139788.14236111112,8.919876680761904
40.230998,29.008987,23.61,-0.46,-0.87,10.3,0.04,0.02,-0.04,2024-05-03 14:13:19.140,6.558333333333334,139788.14236111112,10.346907750627722
40.230998,29.008987,23.61,-0.86,-1.08,10.81,0.01,0.02,-0.04,2024-05-03 14:13:20.140,6.558333333333334,139788.14236111112,10.897802530785738
40.230998,29.008987,23.61,-0.59,-1.07,9.92,0.03,0.02,-0.04,2024-05-03 14:13:21.140,6.558333333333334,139788.14236111112,9.994968734318283
40.230937,29.008993,27.17,-0.24,-1.05,8.89,0.01,0.02,-0.05,2024-05-03 14:13:22.140,7.5472222222222225,185121.83063271607,8.95500977107228
40.230937,29.008993,27.17,-0.76,-1.28,12.12,-0.01,-0.0,-0.05,2024-05-03 14:13:23.140,7.5472222222222225,185121.83063271607,12.211076938583263
40.230937,29.008993,27.17,-0.29,-1.34,8.27,0.02,-0.01,-0.05,2024-05-03 14:13:24.140,7.5472222222222225,185121.83063271607,8.382875401674536
40.230937,29.008993,27.17,-0.1,-0.77,10.92,0.03,0.0,-0.04,2024-05-03 14:13:25.140,7.5472222222222225,185121.83063271607,10.947570506738014
40.230937,29.008993,27.17,-0.4,-1.01,11.9,0.01,0.0,-0.04,2024-05-03 14:13:26.140,7.5472222222222225,185121.83063271607,11.949481160284744
40.230937,29.008993,27.17,-0.37,-1.05,10.21,0.02,-0.01,-0.03,2024-05-03 14:13:27.140,7.5472222222222225,185121.83063271607,10.27051605324679
40.230937,29.008993,27.17,-0.39,-1.24,11.3,0.02,-0.0,-0.02,2024-05-03 14:13:28.140,7.5472222222222225,185121.83063271607,11.374519770082603
40.230937,29.008993,27.17,0.08,-0.9,10.47,0.01,-0.01,-0.04,2024-05-03 14:13:29.140,7.5472222222222225,185121.83063271607,10.508915262766182
40.230937,29.008993,27.17,-0.31,-1.01,10.86,0.01,-0.01,-0.02,2024-05-03 14:13:30.140,7.5472222222222225,185121.83063271607,10.911269403694511
40.230861,29.008995,30.41,0.35,-0.74,9.23,0.02,0.0,-0.02,2024-05-03 14:13:31.140,8.447222222222223,231905.5806327161,9.266229006451331
40.230861,29.008995,30.41,-0.01,-1.44,9.82,0.02,-0.0,-0.01,2024-05-03 14:13:32.140,8.447222222222223,231905.5806327161,9.925023929442185
40.230861,29.008995,30.41,-0.34,-0.85,9.77,0.02,-0.0,0.0,2024-05-03 14:13:33.140,8.447222222222223,231905.5806327161,9.81279776618269
40.230861,29.008995,30.41,-0.1,-1.24,10.46,0.01,0.01,-0.01,2024-05-03 14:13:34.140,8.447222222222223,231905.5806327161,10.533717292580052
40.230861,29.008995,30.41,0.38,-0.76,10.89,0.0,-0.02,-0.02,2024-05-03 14:13:35.140,8.447222222222223,231905.5806327161,10.923099377008342
40.230781,29.008995,33.35,-0.19,-0.96,10.68,0.0,0.01,-0.01,2024-05-03 14:13:36.140,9.26388888888889,278913.8213734568,10.72474242114933
40.23069,29.008996,36.08,-0.09,-0.79,10.78,0.01,0.01,-0.01,2024-05-03 14:13:37.140,10.022222222222222,326446.04938271607,10.80928304745509
40.230594,29.008998,38.93,-0.08,-1.02,9.66,0.01,0.01,-0.01,2024-05-03 14:13:38.140,10.813888888888888,380055.6269290123,9.714031089099931
40.230594,29.008998,38.93,-0.41,-1.21,10.02,0.01,0.01,-0.02,2024-05-03 14:13:39.140,10.813888888888888,380055.6269290123,10.101118749920722
40.230594,29.008998,38.93,0.4,-0.72,9.98,0.02,-0.02,-0.01,2024-05-03 14:13:40.140,10.813888888888888,380055.6269290123,10.0139302973408
40.230594,29.008998,38.93,-0.68,-1.03,9.86,0.01,-0.01,-0.02,2024-05-03 14:13:41.140,10.813888888888888,380055.6269290123,9.936946210984539
40.230491,29.009,41.71,0.37,-0.86,8.55,0.01,-0.01,-0.01,2024-05-03 14:13:42.140,11.58611111111111,436273.4047067901,8.60110458022689
40.230491,29.009,41.71,0.15,-0.82,10.68,0.02,0.0,-0.01,2024-05-03 14:13:43.140,11.58611111111111,436273.4047067901,10.7124833722158
40.230491,29.009,41.71,-0.16,-1.0,9.72,0.01,-0.0,-0.01,2024-05-03 14:13:44.140,11.58611111111111,436273.4047067901,9.772614798507101
40.230491,29.009,41.71,-0.06,-0.44,9.6,0.03,0.01,-0.01,2024-05-03 14:13:45.140,11.58611111111111,436273.4047067901,9.61026534493195
40.230266,29.009004,46.23,-0.19,-0.14,9.69,0.03,-0.02,-0.0,2024-05-03 14:13:46.140,12.841666666666667,535952.3090277778,9.692873670898635
40.230266,29.009004,46.23,-0.32,0.38,11.5,0.03,-0.02,-0.01,2024-05-03 14:13:47.140,12.841666666666667,535952.3090277778,11.510725433264405
40.230266,29.009004,46.23,0.04,-0.47,9.44,-0.01,-0.01,-0.0,2024-05-03 14:13:48.140,12.841666666666667,535952.3090277778,9.451777610587333
40.230148,29.009004,46.26,-0.18,0.12,10.41,0.04,0.03,0.0,2024-05-03 14:13:49.140,12.85,536648.125,10.412247595980418
40.230148,29.009004,46.26,-0.16,-0.2,12.28,0.02,0.02,-0.01,2024-05-03 14:13:50.140,12.85,536648.125,12.2826707193509
40.230033,29.009006,45.84,0.0,-0.08,10.09,0.01,-0.01,-0.01,2024-05-03 14:13:51.140,12.733333333333333,526947.7777777778,10.090317140704746
40.230033,29.009006,45.84,-0.44,0.23,10.21,0.0,-0.01,-0.0,2024-05-03 14:13:52.140,12.733333333333333,526947.7777777778,10.222064370761906
40.230033,29.009006,45.84,-0.39,-0.29,11.03,0.0,0.0,-0.01,2024-05-03 14:13:53.140,12.733333333333333,526947.7777777778,11.04070197043648
40.229919,29.009008,45.0,-0.7,-0.3,10.52,0.01,-0.02,-0.0,2024-05-03 14:13:54.140,12.5,507812.5,10.547530516665974
40.229919,29.009008,45.0,-0.2,-0.35,10.36,0.02,-0.01,-0.0,2024-05-03 14:13:55.140,12.5,507812.5,10.367839697834837
40.229919,29.009008,45.0,-0.81,-0.47,11.88,0.03,0.01,-0.01,2024-05-03 14:13:56.140,12.5,507812.5,11.916853611587248
40.229808,29.00901,44.32,-0.0,-0.24,10.09,0.01,0.0,-0.0,2024-05-03 14:13:57.140,12.311111111111112,492581.2345679013,10.092853907592241
40.229808,29.00901,44.32,-0.05,-0.18,9.89,0.0,0.0,-0.0,2024-05-03 14:13:58.140,12.311111111111112,492581.2345679013,9.891764251133365
40.229808,29.00901,44.32,-0.45,-0.49,9.92,0.01,0.0,-0.0,2024-05-03 14:13:59.140,12.311111111111112,492581.2345679013,9.942283439934712
40.229808,29.00901,44.32,-0.63,0.48,9.99,0.04,0.01,-0.01,2024-05-03 14:14:00.140,12.311111111111112,492581.2345679013,10.02134721482097
40.229808,29.00901,44.32,-0.38,-0.71,9.73,0.01,-0.01,-0.01,2024-05-03 14:14:01.140,12.311111111111112,492581.2345679013,9.763267895535797
40.229808,29.00901,44.32,-0.24,0.02,9.53,0.03,0.0,-0.01,2024-05-03 14:14:02.140,12.311111111111112,492581.2345679013,9.533042536357424
40.229698,29.009012,44.28,0.0,-0.4,11.08,0.01,-0.01,-0.01,2024-05-03 14:14:03.140,12.3,491692.50000000006,11.087217865632478
40.229698,29.009012,44.28,0.03,-0.55,10.45,0.03,0.0,-0.0,2024-05-03 14:14:04.140,12.3,491692.50000000006,10.464506677335534
40.229587,29.009014,44.1,-0.14,-0.21,9.01,0.01,0.03,-0.01,2024-05-03 14:14:05.140,12.25,487703.125,9.01353426797724
40.229587,29.009014,44.1,-0.08,-0.4,9.74,-0.01,0.01,-0.01,2024-05-03 14:14:06.140,12.25,487703.125,9.748538351978722
40.229587,29.009014,44.1,-0.57,-0.4,9.97,-0.01,0.03,-0.02,2024-05-03 14:14:07.140,12.25,487703.125,9.994288368863488
40.229587,29.009014,44.1,-0.37,-0.37,10.1,0.0,0.01,-0.01,2024-05-03 14:14:08.140,12.25,487703.125,10.113545372420099
40.229476,29.009016,44.21,-0.57,-0.01,8.94,0.03,-0.0,-0.01,2024-05-03 14:14:09.140,12.280555555555555,490139.14544753084,8.95815829286355
40.229366,29.009017,43.87,-0.27,-0.43,9.6,0.01,-0.01,-0.02,2024-05-03 14:14:10.140,12.186111111111112,482629.2380401235,9.613417706518323
40.229366,29.009017,43.87,0.32,-0.34,9.95,0.03,-0.01,-0.01,2024-05-03 14:14:11.140,12.186111111111112,482629.2380401235,9.960948749993646
40.229366,29.009017,43.87,-0.2,0.12,10.45,0.02,0.0,-0.0,2024-05-03 14:14:12.140,12.186111111111112,482629.2380401235,10.452602546734473
40.229366,29.009017,43.87,-0.39,-0.88,9.87,0.02,-0.0,-0.01,2024-05-03 14:14:13.140,12.186111111111112,482629.2380401235,9.916824088386361
40.229255,29.009019,44.15,-0.39,-0.38,10.07,0.02,0.01,-0.01,2024-05-03 14:14:14.140,12.26388888888889,488809.65470679017,10.084711200624438
40.229255,29.009019,44.15,-0.13,-0.59,10.36,0.01,-0.01,-0.01,2024-05-03 14:14:15.140,12.26388888888889,488809.65470679017,10.377600878815873
40.229255,29.009019,44.15,-0.34,-0.35,10.83,0.02,-0.0,-0.01,2024-05-03 14:14:16.140,12.26388888888889,488809.65470679017,10.840987039933218
40.229255,29.009019,44.15,-0.3,-0.63,8.54,0.01,-0.0,-0.01,2024-05-03 14:14:17.140,12.26388888888889,488809.65470679017,8.568459604853137
40.229255,29.009019,44.15,-0.28,-0.41,10.21,0.0,-0.0,-0.01,2024-05-03 14:14:18.140,12.26388888888889,488809.65470679017,10.222064370761906
40.229145,29.009019,44.15,-0.14,-0.32,11.33,0.01,0.0,-0.0,2024-05-03 14:14:19.140,12.26388888888889,488809.65470679017,11.335382657855005
40.22903,29.009019,45.43,0.09,-0.55,9.45,0.03,-0.01,-0.0,2024-05-03 14:14:20.140,12.619444444444444,517563.72878086416,9.46641959771486
40.22903,29.009019,45.43,-0.48,0.25,9.25,0.02,-0.0,-0.01,2024-05-03 14:14:21.140,12.619444444444444,517563.72878086416,9.265818906065453
40.22903,29.009019,45.43,-0.64,0.18,10.27,0.01,0.01,-0.01,2024-05-03 14:14:22.140,12.619444444444444,517563.72878086416,10.291496489821098
40.22903,29.009019,45.43,0.02,0.13,10.1,-0.01,-0.01,-0.02,2024-05-03 14:14:23.140,12.619444444444444,517563.72878086416,10.100856399335653
40.22903,29.009019,45.43,-0.74,-0.12,10.14,0.01,-0.01,-0.01,2024-05-03 14:14:24.140,12.619444444444444,517563.72878086416,10.167674267009147
40.22903,29.009019,45.43,-0.25,0.21,8.89,0.0,-0.0,-0.01,2024-05-03 14:14:25.140,12.619444444444444,517563.72878086416,8.89599348021344
40.228916,29.009019,46.93,-0.49,1.01,6.07,0.03,0.04,0.01,2024-05-03 14:14:26.140,13.036111111111111,552305.6269290124,6.172932852380625
40.228916,29.009019,46.93,-0.63,1.2,8.37,0.04,0.03,-0.0,2024-05-03 14:14:27.140,13.036111111111111,552305.6269290124,8.479021169922857
40.228916,29.009019,46.93,-0.56,2.07,10.62,-0.01,-0.01,-0.01,2024-05-03 14:14:28.140,13.036111111111111,552305.6269290124,10.83433892768728
40.228916,29.009019,46.93,-0.55,1.29,8.72,0.0,0.0,-0.0,2024-05-03 14:14:29.140,13.036111111111111,552305.6269290124,8.832043931050162
40.228916,29.009019,46.93,0.48,1.18,11.85,-0.03,-0.0,-0.02,2024-05-03 14:14:30.140,13.036111111111111,552305.6269290124,11.918275882022533
40.228916,29.009019,46.93,-0.67,1.65,11.89,0.03,0.0,-0.03,2024-05-03 14:14:31.140,13.036111111111111,552305.6269290124,12.02262450548964
40.228916,29.009019,46.93,-0.15,2.71,10.94,0.01,-0.0,-0.0,2024-05-03 14:14:32.140,13.036111111111111,552305.6269290124,11.27165471437091
40.228916,29.009019,46.93,-0.19,1.86,8.86,-0.0,-0.01,-0.0,2024-05-03 14:14:33.140,13.036111111111111,552305.6269290124,9.055125620332387
40.228916,29.009019,46.93,-0.92,1.24,8.47,0.0,0.01,-0.01,2024-05-03 14:14:34.140,13.036111111111111,552305.6269290124,8.609581871380282
40.228916,29.009019,46.93,0.0,2.07,12.47,-0.01,-0.01,-0.01,2024-05-03 14:14:35.140,13.036111111111111,552305.6269290124,12.640640806541416
40.228916,29.009019,46.93,-0.61,1.87,9.28,0.0,-0.03,-0.01,2024-05-03 14:14:36.140,13.036111111111111,552305.6269290124,9.486168878952135
40.228916,29.009019,46.93,-0.32,2.38,12.27,-0.05,-0.01,-0.01,2024-05-03 14:14:37.140,13.036111111111111,552305.6269290124,12.502787689151567
40.228916,29.009019,46.93,0.55,1.9,8.81,-0.01,0.01,-0.03,2024-05-03 14:14:38.140,13.036111111111111,552305.6269290124,9.029318911191474
40.228916,29.009019,46.93,-0.9,1.72,7.76,-0.01,0.01,0.01,2024-05-03 14:14:39.140,13.036111111111111,552305.6269290124,7.999124952143203
40.228916,29.009019,46.93,-1.21,4.14,6.38,0.03,-0.08,0.06,2024-05-03 14:14:40.140,13.036111111111111,552305.6269290124,7.701175234988488
40.228916,29.009019,46.93,0.06,3.51,9.95,-0.02,-0.03,-0.01,2024-05-03 14:14:41.140,13.036111111111111,552305.6269290124,10.55112316296232
40.228916,29.009019,46.93,-0.1,1.92,8.37,0.02,0.0,-0.01,2024-05-03 14:14:42.140,13.036111111111111,552305.6269290124,8.587974149937805
40.228916,29.009019,46.93,-1.47,2.49,9.58,-0.02,-0.0,-0.0,2024-05-03 14:14:43.140,13.036111111111111,552305.6269290124,10.006867641774823
40.228916,29.009019,46.93,-0.73,1.5,9.84,0.03,0.0,0.0,2024-05-03 14:14:44.140,13.036111111111111,552305.6269290124,9.980405803372927
40.228721,29.009019,31.76,-0.07,2.06,11.33,0.02,-0.01,-0.01,2024-05-03 14:14:45.140,8.822222222222223,252952.71604938273,11.515962834257499
40.228721,29.009019,31.76,-1.17,2.1,11.32,0.03,-0.0,-0.02,2024-05-03 14:14:46.140,8.822222222222223,252952.71604938273,11.572437081272035
40.228721,29.009019,31.76,-0.02,1.66,7.87,0.01,0.01,-0.01,2024-05-03 14:14:47.140,8.822222222222223,252952.71604938273,8.043189665798016
40.228721,29.009019,31.76,-0.55,1.58,9.44,0.02,0.0,-0.02,2024-05-03 14:14:48.140,8.822222222222223,252952.71604938273,9.587100708764876
40.228721,29.009019,31.76,-0.77,2.4,10.37,0.01,-0.01,0.0,2024-05-03 14:14:49.140,8.822222222222223,252952.71604938273,10.671916416464288
40.228721,29.009019,31.76,-1.01,3.15,11.9,-0.02,0.02,-0.04,2024-05-03 14:14:50.140,8.822222222222223,252952.71604938273,12.351218563364508
40.228721,29.009019,31.76,-0.54,3.16,9.63,0.02,0.0,-0.01,2024-05-03 14:14:51.140,8.822222222222223,252952.71604938273,10.149586198461494
40.228721,29.009019,31.76,-0.83,2.52,9.9,0.0,0.01,-0.0,2024-05-03 14:14:52.140,8.822222222222223,252952.71604938273,10.24935607733481
40.228721,29.009019,31.76,-0.37,1.79,9.76,0.0,-0.01,-0.01,2024-05-03 14:14:53.140,8.822222222222223,252952.71604938273,9.92968277438912
40.228721,29.009019,31.76,-0.37,2.02,9.87,-0.01,-0.01,-0.02,2024-05-03 14:14:54.140,8.822222222222223,252952.71604938273,10.08137887394378
40.228656,29.009019,23.32,-0.64,1.76,10.27,0.02,-0.0,-0.0,2024-05-03 14:14:55.140,6.477777777777778,136375.21604938273,10.43935342825407
40.228656,29.009019,23.32,-0.89,1.4,10.78,0.03,0.01,-0.01,2024-05-03 14:14:56.140,6.477777777777778,136375.21604938273,10.90690148483977
40.228656,29.009019,23.32,-1.06,1.33,9.99,0.0,-0.0,-0.0,2024-05-03 14:14:57.140,6.477777777777778,136375.21604938273,10.133735737624107
40.228656,29.009019,23.32,-0.68,1.79,10.05,-0.01,-0.0,-0.01,2024-05-03 14:14:58.140,6.477777777777778,136375.21604938273,10.230786871008506
40.22861,29.009019,15.91,-0.47,0.11,10.34,0.0,0.0,-0.0,2024-05-03 14:14:59.140,4.419444444444444,63477.33989197531,10.351260792773024
